acc_x, acc_y, angular_z, stamp, 
0.03281891345977783, -0.014042496681213379, 1.9791578280710804e-06, 1759354379064353313
-0.06138956546783447, 0.016598165035247803, 1.8992256897706916e-06, 1759354379095729458
0.053678929805755615, -0.023491740226745605, -3.7831673101364936e-10, 1759354379185549739
-0.024241268634796143, -0.012539267539978027, 1.8862685242430526e-11, 1759354379215292396
0.025162160396575928, 0.012721836566925049, -2.913308730755644e-10, 1759354379275362214
0.07703649997711182, -0.017825663089752197, -3.200405164195035e-10, 1759354379305603858
-0.0028218626976013184, 0.018330097198486328, 8.400792171649317e-11, 1759354379336193751
-0.08384156227111816, 0.030920803546905518, 2.4096773716634326e-10, 1759354379367926131
-0.018557608127593994, 0.019889771938323975, 3.946938640043747e-11, 1759354379395404433
0.07164174318313599, -0.030703186988830566, -1.7920364692297992e-10, 1759354379425508637
0.04930800199508667, -0.025219202041625977, -2.934187907718421e-12, 1759354379455477270
-0.04299718141555786, 0.01793074607849121, 3.074566863172324e-10, 1759354379485546912
-0.07141417264938354, 0.02309626340866089, 2.6299618287119386e-10, 1759354379515462049
0.006505370140075684, 0.00667262077331543, 8.529121164952633e-11, 1759354379545628630
0.0817866325378418, -0.01499098539352417, -1.2451745907189456e-11, 1759354379576111809
-0.008790075778961182, -0.0076427459716796875, 1.1823524483058885e-10, 1759354379608303697
-0.11820101737976074, 0.01465517282485962, 0.001807821172826569, 1759354379636097763
0.026743173599243164, -0.02292037010192871, 0.00948215398388145, 1759354379665843046
-0.08902692794799805, 0.7807425856590271, 0.15597213638440882, 1759354379695647062
0.36119556427001953, 0.38605064153671265, 0.491122531273565, 1759354379725693239
-0.6995124816894531, 0.32164621353149414, 0.7156463243621896, 1759354379755734571
0.2789762020111084, 0.20198416709899902, 0.9363146171106199, 1759354379785874689
-0.5323312878608704, 0.5062722563743591, 1.0802727727319799, 1759354379816031224
-0.29622960090637207, 0.4552116394042969, 1.186882314531555, 1759354379848463374
-0.007342934608459473, 0.1491844654083252, 1.4945638482787578, 1759354379878373717
0.3255460262298584, 0.1703740358352661, 1.8907760046744624, 1759354379905202275
-0.4494142532348633, 0.5356572270393372, 1.7834760922786221, 1759354379936129164
-0.14336234331130981, -0.09365922212600708, 1.992843103830727, 1759354379966322873
-0.08954280614852905, -0.26592200994491577, 2.0147514621157185, 1759354379996510126
-0.8332188129425049, -0.782757043838501, 2.0466886606103256, 1759354380026412955
-0.04547697305679321, -0.48900628089904785, 2.0370640412665404, 1759354380056470410
-0.4920635223388672, 0.7721139788627625, 1.8749981375863196, 1759354380088052928
0.39284348487854004, 0.08329284191131592, 1.860508938093524, 1759354380119044245
-0.5894176959991455, -0.8742391467094421, 2.025910272744134, 1759354380146751517
-0.23862212896347046, -0.3540164828300476, 1.9015669507937458, 1759354380176879987
-0.23072099685668945, 0.39657461643218994, 1.6494568111106889, 1759354380200031198
-0.6226059198379517, -1.0232032537460327, 2.235291470519498, 1759354380225859221
-0.5310565829277039, -0.5217276215553284, 1.8823716021948604, 1759354380256808485
0.2822573781013489, 0.9269153475761414, 1.908750205727942, 1759354380286894379
-0.2154465913772583, 0.26615291833877563, 1.938967176383836, 1759354380316980229
-0.4539231061935425, -1.225976586341858, 1.9089417968275781, 1759354380347046947
0.2969982624053955, -0.36374521255493164, 1.914629748392909, 1759354380377095692
0.2789769768714905, 0.8176478147506714, 1.851335659549275, 1759354380408048948
0.26805996894836426, 0.43209320306777954, 1.7846591556376243, 1759354380440223873
-0.719788670539856, -0.5805186033248901, 2.118666280322258, 1759354380467727371
-0.056968867778778076, -0.5790022611618042, 1.9443204246179895, 1759354380497333306
0.5258277654647827, 0.3198245167732239, 1.9415561647297421, 1759354380527399307
-0.3107914328575134, 0.257185697555542, 1.9225304339179714, 1759354380557725707
0.03506958484649658, -0.0683664083480835, 1.9362811906525916, 1759354380587525989
-1.0341099500656128, -0.34486567974090576, 1.9067150877623174, 1759354380617677256
-0.22572803497314453, -0.1359235644340515, 1.868659747433416, 1759354380648070285
0.5573262572288513, 0.24496352672576904, 1.7830606818137065, 1759354380680315361
-1.1452662944793701, -0.1331760287284851, 1.929296370141262, 1759354380709924840
0.7357741594314575, 0.49760276079177856, 2.049610591193271, 1759354380746853963
-0.8685636520385742, -0.22547173500061035, 1.8401560452966619, 1759354380777992684
0.09362280368804932, -0.17627501487731934, 1.8865958083823409, 1759354380808534402
-0.7099478244781494, -0.6600315570831299, 1.9081995849543787, 1759354380839111028
-0.34235233068466187, -0.19698071479797363, 1.8295190161264816, 1759354380870634284
0.20401149988174438, 0.6207389831542969, 2.0746726264767923, 1759354380898290567
-0.06870943307876587, 0.16116338968276978, 1.9398641817685585, 1759354380928240718
-0.3133453130722046, -0.25480103492736816, 1.8797912447876897, 1759354380958743019
-0.5512744784355164, -0.6069371104240417, 1.9448094999953012, 1759354380988382196
0.008569955825805664, -0.43555307388305664, 1.917381206085229, 1759354381018526791
0.7803272604942322, 0.6825253367424011, 1.9323550954886666, 1759354381048572742
-0.457702100276947, 0.7473129034042358, 1.8429036060944362, 1759354381080233253
-0.16171646118164062, -0.1881820559501648, 1.8149897094895147, 1759354381111903244
-0.13456666469573975, -0.42368626594543457, 2.1139507781969034, 1759354381138748355
-0.11393105983734131, -0.5441211462020874, 1.8922617257638203, 1759354381168764496
0.5541967153549194, 0.34153151512145996, 1.8958773197225913, 1759354381198907222
-0.6030030250549316, 0.798406183719635, 1.9351753794610798, 1759354381228943583
-0.4560409188270569, -0.2535480856895447, 1.9044109231298887, 1759354381259215722
-0.17899936437606812, -0.7283993363380432, 1.8918209141637259, 1759354381289101024
-0.630375325679779, -0.36032313108444214, 1.8415504024309175, 1759354381320581032
0.375266969203949, 0.2549148201942444, 1.870488885539808, 1759354381351932180
-0.33200228214263916, 0.32917892932891846, 2.09987967243335, 1759354381379245537
-0.32849353551864624, -0.13943487405776978, 1.886421223558588, 1759354381409309269
0.5409559011459351, 0.03926330804824829, 1.928836730630589, 1759354381439361074
-0.4699742794036865, -0.20916438102722168, 1.902492317867074, 1759354381469398443
0.6644899845123291, -0.4803130626678467, 1.8784808680141638, 1759354381499529110
-0.5785510540008545, 0.18495362997055054, 1.8996555299704112, 1759354381529594591
-0.23737561702728271, 0.5402395129203796, 1.8836117947452544, 1759354381560053223
-0.05466097593307495, 0.4380245804786682, 1.8597703492005058, 1759354381590845051
-0.045379579067230225, 0.3244895935058594, 1.8231592189425787, 1759354381622156659
-0.002405703067779541, 0.25794506072998047, 2.0216450253982607, 1759354381650581349
-0.6350541114807129, -0.06556206941604614, 1.9696387107350495, 1759354381680485514
-0.6739218831062317, -0.016129910945892334, 1.8443018837036598, 1759354381701917453
0.6606557369232178, -0.13012146949768066, 2.0076937885683397, 1759354381740553596
-0.654043436050415, 0.06371092796325684, 1.888195372358322, 1759354381770942368
0.04231119155883789, 0.4374949336051941, 1.9402208953126525, 1759354381800634603
-0.48603445291519165, 0.7305208444595337, 1.7870131556822189, 1759354381832604046
-0.08047318458557129, 0.03799527883529663, 1.849262635732339, 1759354381863155432
-0.42184948921203613, -0.43720537424087524, 2.0928576626745046, 1759354381890645334
-0.27636945247650146, -0.5023221373558044, 1.9024099960634557, 1759354381920613028
-0.025029420852661133, 0.3236731290817261, 1.897402600433868, 1759354381950672141
-0.7712623476982117, 0.1230851411819458, 1.91526566205895, 1759354381980725709
-0.14498400688171387, -0.12738889455795288, 1.9286081936164552, 1759354382010732650
0.5131263136863708, 0.46884435415267944, 1.9221540496733676, 1759354382040878355
-0.6936461925506592, 0.38992851972579956, 1.8323442911284191, 1759354382072269430
0.20784658193588257, -0.07490503787994385, 1.824995699728854, 1759354382103919128
-0.4997764825820923, -0.08559596538543701, 2.1375642865227116, 1759354382130941477
-0.026657700538635254, -0.31810009479522705, 1.9053702573351516, 1759354382160976396
0.08365023136138916, 0.0018990635871887207, 1.9018547542601445, 1759354382191024571
0.3003336787223816, 0.028140902519226074, 1.890580584216132, 1759354382221032794
-0.7050986886024475, 0.310943603515625, 1.8958744932131557, 1759354382251394173
-0.6963919401168823, 0.5536260604858398, 1.9555096295794432, 1759354382281198347
0.11585211753845215, 0.5265199542045593, 1.8783602444445462, 1759354382311963867
0.011843860149383545, 0.254702627658844, 1.7698190551275161, 1759354382344523905
-0.558777391910553, -0.03999900817871094, 2.1188704086195793, 1759354382371428194
-0.4000776410102844, -0.19608348608016968, 1.912569738908778, 1759354382401445401
-0.41441649198532104, -0.23557049036026, 1.9100867826373218, 1759354382431537863
0.20153814554214478, 0.1909877061843872, 1.921952426154225, 1759354382461576570
-1.1368545293807983, -0.29518818855285645, 1.9393500154575205, 1759354382491622627
0.14018124341964722, -0.28754860162734985, 1.9063783307652558, 1759354382521729267
0.5919727087020874, -0.14983975887298584, 1.8646651752395, 1759354382552038355
-0.5104789733886719, -0.29594218730926514, 1.753795244375142, 1759354382584093813
0.26834309101104736, 0.15316557884216309, 2.0515186079620986, 1759354382611909794
0.018161356449127197, 0.04599183797836304, 1.903631853788696, 1759354382641934376
0.404815673828125, -0.0889318585395813, 1.921861918840822, 1759354382672018900
-0.32303428649902344, 0.16511201858520508, 1.9209570933835127, 1759354382702085226
-0.23242563009262085, 0.6323122382164001, 1.8846584566776938, 1759354382732117199
-0.19333618879318237, 0.12725955247879028, 1.870978220027811, 1759354382762442986
-0.11818802356719971, 0.1192275881767273, 1.917463213472477, 1759354382792491381
-0.10532230138778687, 0.7615342736244202, 1.8915938730329804, 1759354382822996741
-0.7759119272232056, 0.46097463369369507, 1.752012637042374, 1759354382855452078
-0.1126718521118164, -0.08632338047027588, 2.1275036393595808, 1759354382882479863
-0.22767263650894165, 0.29208964109420776, 1.948009613244362, 1759354382912549841
-0.6238546967506409, 0.4790719151496887, 1.892540748967373, 1759354382942569633
-0.26826101541519165, 0.07958686351776123, 1.8700252654033422, 1759354382972632202
-0.4882758855819702, -0.22694700956344604, 1.9202658849488998, 1759354383002766390
0.03831064701080322, -0.1861603856086731, 1.9405868455249968, 1759354383032784818
-0.24535483121871948, 0.23371648788452148, 1.8365177967840463, 1759354383063999227
-0.3670094609260559, 0.050811946392059326, 1.7896072965083978, 1759354383095944964
0.4036487936973572, -0.5712623000144958, 2.119713660040691, 1759354383123053024
0.19526231288909912, 0.031141340732574463, 1.9106564814899618, 1759354383153042253
0.146476149559021, 0.21686261892318726, 1.9332505297393547, 1759354383183074827
-0.17455095052719116, -0.45792973041534424, 1.9466886711810731, 1759354383213158477
0.26999205350875854, -0.12753331661224365, 1.9165498754353454, 1759354383243277780
0.013500094413757324, 0.4356546401977539, 1.8979550272748331, 1759354383273371604
-0.010404884815216064, 0.1325886845588684, 1.8064769155036833, 1759354383304738248
-0.8953473567962646, 0.2754288911819458, 1.8217459346452034, 1759354383336012524
0.5672938823699951, 0.25772708654403687, 2.072668263060078, 1759354383363526113
0.44498109817504883, 0.3351428508758545, 1.9323614665597164, 1759354383393548345
-0.2156836986541748, 0.28700220584869385, 1.9104039272055087, 1759354383423599984
0.26272910833358765, 0.5599799752235413, 1.8693196900575855, 1759354383453651052
-0.472473680973053, -0.07707488536834717, 1.8851554924269298, 1759354383483708523
-0.0030358433723449707, 0.42096877098083496, 1.8660754294954585, 1759354383513856474
-0.44844889640808105, 0.6965841054916382, 1.8667244100274558, 1759354383543988849
0.27189111709594727, 0.147877037525177, 1.7975410362319675, 1759354383576117591
-1.0263910293579102, 0.0743529200553894, 2.0833859824947156, 1759354383604032709
0.24840617179870605, 0.42853498458862305, 1.9154646446251307, 1759354383634075290
0.5886803269386292, 0.10993683338165283, 1.8929602836920383, 1759354383664118090
-0.4238474369049072, -0.41673606634140015, 1.8842996707958617, 1759354383694172841
0.20829659700393677, 0.05479806661605835, 1.8791994938834848, 1759354383724223318
-0.804412841796875, -0.23109757900238037, 1.887948916016332, 1759354383754345094
-0.007042825222015381, -0.3851374387741089, 1.9995086372181927, 1759354383783431096
0.1632174849510193, 0.7196284532546997, 1.7654334237429306, 1759354383816514869
0.29408854246139526, 0.34611839056015015, 1.899631591884038, 1759354383846988086
-0.21913933753967285, -0.17998504638671875, 2.0566129278905794, 1759354383884618299
-0.19019562005996704, -0.21040356159210205, 1.9126383611852156, 1759354383914666025
-0.733420193195343, 0.0359991192817688, 1.8559156162133204, 1759354383944746095
-0.03951728343963623, -0.26973313093185425, 1.8112551686970726, 1759354383976357359
0.035496532917022705, 0.3645835518836975, 1.818648426978673, 1759354384008449866
-0.4712029695510864, -0.0011931061744689941, 2.1092851112800575, 1759354384035687068
-0.03406339883804321, 0.6780706644058228, 1.9616843960467152, 1759354384064839078
0.01996314525604248, 0.14839386940002441, 1.8499025527414479, 1759354384095726668
-0.6841414570808411, -0.07311069965362549, 1.9185457439019844, 1759354384125684814
0.20621246099472046, -0.40136003494262695, 1.9561077460559824, 1759354384155758184
-0.05012094974517822, -0.0052664875984191895, 1.9155374230995652, 1759354384185752877
-0.0946969985961914, -0.3397878408432007, 1.830946878427278, 1759354384216082155
-0.346310555934906, -0.08812397718429565, 1.7176347562292178, 1759354384248359559
0.10593158006668091, 0.47538989782333374, 2.0261550620417164, 1759354384275767820
-0.18513250350952148, 1.1467875242233276, 1.8366115200306454, 1759354384305784709
-0.6962502598762512, 0.5426289439201355, 1.906283479616348, 1759354384334831219
0.34775418043136597, -0.02306818962097168, 1.7573795670098264, 1759354384365952288
-0.5927072763442993, -0.06383723020553589, 1.8458859660615312, 1759354384395923109
-0.23835527896881104, 0.11223012208938599, 1.836944411539898, 1759354384425994688
-0.08262187242507935, 0.16030186414718628, 1.777678751625548, 1759354384456587734
0.5432286858558655, -0.10858041048049927, 1.7272187145815943, 1759354384488302843
-0.8314411640167236, 0.22284013032913208, 1.9957656305878322, 1759354384515947730
0.3563408851623535, 0.2726544737815857, 1.8110933308247372, 1759354384546048423
-0.21713554859161377, 0.1705150008201599, 1.8023685901384903, 1759354384576062856
0.5863244533538818, 0.2177361249923706, 1.770648269159091, 1759354384606205202
-0.519983172416687, 0.2214909791946411, 1.7022748203393632, 1759354384636192775
0.5146872997283936, -0.2647439241409302, 1.707856197350661, 1759354384666291659
-0.4717071056365967, 0.05633622407913208, 1.68104106490357, 1759354384696495976
-0.1611747145652771, 0.5037301182746887, 1.59793550100297, 1759354384728334282
-0.3190179467201233, 0.6261084675788879, 1.67124754004003, 1759354384759333201
-0.533722460269928, 0.5174991488456726, 1.8861203261393382, 1759354384786618783
-0.003245413303375244, 0.39601850509643555, 1.6861742551096002, 1759354384816670685
-0.6692878603935242, 0.21661674976348877, 1.7454347687794216, 1759354384845844117
0.46812260150909424, 0.2843145728111267, 1.646493138095417, 1759354384876775803
-0.1228594183921814, 0.6425249576568604, 1.6751279128254248, 1759354384906979369
0.38258808851242065, 0.2963829040527344, 1.698840492042308, 1759354384936889211
-0.42568182945251465, 0.3443302512168884, 1.5639882435678503, 1759354384968728337
0.07620376348495483, 0.24737566709518433, 1.539800944035518, 1759354385000027649
-0.6432865858078003, -0.057268500328063965, 1.7858760614991587, 1759354385027110545
0.1305038332939148, 0.40667688846588135, 1.614100967376898, 1759354385057120458
-0.4031407833099365, 0.2914528250694275, 1.6459158265596558, 1759354385087186290
-0.36103004217147827, -0.39019256830215454, 1.6642779295331227, 1759354385117231937
0.5402711629867554, 0.4692521095275879, 1.6470533180667397, 1759354385147298562
0.33629608154296875, 0.728593647480011, 1.6085231754036193, 1759354385177337022
-0.654259979724884, 0.17791175842285156, 1.497211325568257, 1759354385208893488
-0.04709458351135254, 0.3025135397911072, 1.5016589377602156, 1759354385240177705
-0.5216950178146362, 0.30775582790374756, 1.718466139710391, 1759354385267629857
-0.395361065864563, -0.7759844660758972, 1.5868684915098643, 1759354385297636017
0.03296077251434326, 0.09235972166061401, 1.589412464376403, 1759354385327719530
-0.2652406096458435, 0.6787726879119873, 1.5494156988520489, 1759354385357779142
0.12923532724380493, 0.3986344337463379, 1.5070748990693479, 1759354385387808065
-0.07439392805099487, 0.2590098977088928, 1.4896605801868519, 1759354385417907129
-0.1683821678161621, 0.36425918340682983, 1.4815584954372754, 1759354385448357644
-0.5295249819755554, 0.3355271816253662, 1.3934630596217699, 1759354385480662015
1.3369109630584717, 0.4035325050354004, 1.6376892467108353, 1759354385508096812
-0.43045252561569214, 0.3515607714653015, 1.491387263259998, 1759354385538121422
0.015353024005889893, -0.2805933356285095, 1.4537590503904902, 1759354385568210587
-0.15924447774887085, 0.42500895261764526, 1.4440444069448921, 1759354385598267072
-0.14045733213424683, 0.21637684106826782, 1.4765399972340973, 1759354385628315812
-0.5993684530258179, 0.6557259559631348, 1.4807090727430037, 1759354385658363434
0.15128475427627563, 0.06785595417022705, 1.4145919856076583, 1759354385688813549
-0.9784417748451233, -0.2614779472351074, 1.380662542224304, 1759354385720348195
0.4628254175186157, 0.2389855980873108, 1.4249816373065614, 1759354385751461614
-0.11259698867797852, 0.8048601150512695, 1.561226006876929, 1759354385778711933
-0.17306798696517944, 0.5583661794662476, 1.3886949802188697, 1759354385808722824
-0.7916136980056763, 0.551040530204773, 1.4433796395535248, 1759354385837820521
0.012099385261535645, -0.006487786769866943, 1.4286509451235954, 1759354385867852088
-0.22030073404312134, 0.02210146188735962, 1.3590389532795484, 1759354385898883637
-0.3992082476615906, 0.39626002311706543, 1.3799231386401327, 1759354385928995251
-0.2516324520111084, 0.07033085823059082, 1.270999211536044, 1759354385961083925
-0.22932398319244385, -0.2130536437034607, 1.2780739589526777, 1759354385992909098
0.5295116305351257, 0.7182262539863586, 1.510867078228119, 1759354386019186279
-0.36140763759613037, 0.18648755550384521, 1.317037278867808, 1759354386049248385
0.2600477933883667, 0.1837930679321289, 1.3462205382916979, 1759354386079291607
-0.21496617794036865, 0.8337193727493286, 1.3301381597377835, 1759354386109616737
0.2673357129096985, 0.08251488208770752, 1.3355868217619395, 1759354386139704457
-0.3251194357872009, -0.26459479331970215, 1.3370639790545262, 1759354386169511143
0.6144588589668274, 0.579671323299408, 1.2443907756644534, 1759354386200412697
-0.21612226963043213, 0.5635468363761902, 1.2074631265535836, 1759354386232558769
-0.3003386855125427, 0.4240947961807251, 1.4349142962072625, 1759354386259712269
-0.2044464349746704, 0.7772846221923828, 1.279727881395692, 1759354386289778034
-0.40306830406188965, 0.2580517530441284, 1.3381036049296686, 1759354386318823878
0.22850584983825684, -0.0073819756507873535, 1.2491857050992623, 1759354386349909989
-0.7328166365623474, -0.02628767490386963, 1.2598893394181576, 1759354386379945391
0.40736889839172363, 0.021675169467926025, 1.2637926987150576, 1759354386410172149
-0.40534132719039917, -0.040360212326049805, 1.2174741082475173, 1759354386441132846
-0.015871524810791016, 0.5661489367485046, 1.168608976448492, 1759354386472347536
0.02775353193283081, -0.1053498387336731, 1.2314199044473586, 1759354386502555313
-0.28272444009780884, 0.3517090082168579, 1.2541192218533603, 1759354386540921594
0.42786097526550293, 0.40633130073547363, 1.2028246486615743, 1759354386570968966
-0.408780038356781, 0.6082987785339355, 1.1655121410445757, 1759354386601063737
0.34087908267974854, 0.25680893659591675, 1.1400096024685378, 1759354386632714772
-0.47386986017227173, 0.3418731689453125, 1.215891814074432, 1759354386661824743
-0.20804435014724731, 0.179454505443573, 1.2040259740438544, 1759354386690965306
0.3898772597312927, 0.4783305525779724, 1.1650486195288394, 1759354386721011182
-0.18608462810516357, 0.10670673847198486, 1.1209782223504463, 1759354386751024465
0.49355173110961914, 0.15005958080291748, 1.1291725994841044, 1759354386781022552
-0.6555449366569519, 0.9313865303993225, 1.094307064710935, 1759354386811088317
0.5557662844657898, 0.4230714440345764, 1.0623196992164199, 1759354386841248652
-0.8741307258605957, 0.124442458152771, 1.064736581155742, 1759354386872426882
0.6932375431060791, 0.3757942318916321, 1.0310957890556425, 1759354386904324992
-0.024384260177612305, 0.682892382144928, 1.1861176270918359, 1759354386941235817
0.19952499866485596, 0.4574206471443176, 1.0780100205793997, 1759354386971228818
0.21028029918670654, 0.10335522890090942, 1.0570673355484441, 1759354387001344053
-0.22179633378982544, 0.7345418334007263, 1.0112913604867053, 1759354387032296249
0.009129762649536133, 0.02194833755493164, 1.0030596773250944, 1759354387064410805
0.2442629337310791, 0.08424115180969238, 1.1134799842979417, 1759354387091588310
-0.6893893480300903, 0.0040495991706848145, 1.0190275829428084, 1759354387121522547
0.40960437059402466, 0.07462435960769653, 1.0359401202040766, 1759354387151574117
0.29828941822052, 0.2905226945877075, 0.9868805908667541, 1759354387181660112
-0.347520112991333, 0.47321629524230957, 0.9930290376290258, 1759354387211684603
-0.059225380420684814, 0.5427941083908081, 1.041206321433221, 1759354387240836989
0.7783682942390442, 0.03607231378555298, 0.9117330784166566, 1759354387272742097
-0.6150229573249817, 0.05601990222930908, 0.9240296765024817, 1759354387304296661
0.25636863708496094, 0.4460088014602661, 1.0306783051484918, 1759354387332084852
-0.3181929588317871, 0.6328122019767761, 0.9416571837247147, 1759354387362040509
-0.011697351932525635, 0.7680483460426331, 0.9352307708031853, 1759354387392066767
-0.47284072637557983, 0.2842952013015747, 0.9340611141469078, 1759354387422152626
0.2336493730545044, -0.10634422302246094, 0.9422286343180534, 1759354387452220022
-0.07656967639923096, -0.23377853631973267, 0.9501923283085765, 1759354387482314522
-0.23500275611877441, 0.5757660865783691, 0.9164288509636167, 1759354387512393160
-0.01386493444442749, 0.1188918948173523, 0.8626564035548672, 1759354387544334233
-0.4752042293548584, 0.10040372610092163, 0.9103967890690163, 1759354387574462066
-0.25197315216064453, 0.6277683973312378, 0.9849191038180803, 1759354387602589777
0.0609203577041626, 0.13890331983566284, 0.8994399384156029, 1759354387632593703
-0.2315186858177185, 0.33264297246932983, 0.8918589968162429, 1759354387662668919
0.6311509609222412, 0.29415422677993774, 0.8713105017168458, 1759354387692695795
-0.3522520065307617, 0.1131477952003479, 0.8877390620667888, 1759354387721844697
0.1329401135444641, 0.4804239273071289, 0.8213992453006511, 1759354387752903254
0.04700690507888794, -0.02503180503845215, 0.7801965124730977, 1759354387785009811
-0.18608766794204712, 0.5837468504905701, 0.8108091611788117, 1759354387816383465
-0.29199111461639404, 0.6990343332290649, 0.9782274485869283, 1759354387843140223
-0.32025760412216187, -0.009769976139068604, 0.8269972140191223, 1759354387873122859
-0.11034733057022095, 0.0420609712600708, 0.8025267746714162, 1759354387903194286
-0.05801224708557129, -0.5577688217163086, 0.8262085383222642, 1759354387933216391
-0.41464924812316895, -0.3431360721588135, 0.8018638856416717, 1759354387963344262
0.05333918333053589, 0.6521185040473938, 0.7952233378869982, 1759354387993389191
-0.2397608757019043, 0.11143577098846436, 0.7737682203732287, 1759354388024530640
0.1459801197052002, 0.45703667402267456, 0.7206823958661451, 1759354388056387049
0.05191218852996826, 0.4473778009414673, 0.8515408252901907, 1759354388083625886
-0.15839362144470215, 0.4010329246520996, 0.8179917130114015, 1759354388112688575
0.10611140727996826, 0.3483659029006958, 0.7549498661360922, 1759354388143733557
-0.5093674063682556, 0.40631741285324097, 0.7720559475324212, 1759354388173735515
0.6733494400978088, 0.33576422929763794, 0.7464742300749959, 1759354388203892005
-0.7057600021362305, -0.2830890417098999, 0.7216236604572526, 1759354388233914545
0.4416372776031494, 0.2905029058456421, 0.7429097855354453, 1759354388264411727
0.16030246019363403, 0.11891418695449829, 0.6795233385037096, 1759354388297273651
-0.0018308162689208984, -0.06291258335113525, 0.7897172661870699, 1759354388324179959
-0.42717474699020386, 0.40169501304626465, 0.7132543242596328, 1759354388354140531
0.08451658487319946, 0.7520403265953064, 0.6986368329087917, 1759354388384181547
0.42201435565948486, 0.12128239870071411, 0.7055787235292845, 1759354388414236766
-0.21830058097839355, 0.16638851165771484, 0.7058118698180414, 1759354388444310371
-0.18116676807403564, 0.7326599955558777, 0.6776594680889734, 1759354388474437285
0.14086151123046875, -0.2316557765007019, 0.6614650952851211, 1759354388504552192
-0.5064052939414978, -1.2568256855010986, 0.6516390907179006, 1759354388536425078
-0.10985469818115234, 0.8634363412857056, 0.6741893620775419, 1759354388566769936
0.4008265733718872, 1.1014251708984375, 0.7087131657759141, 1759354388594681682
-0.521041989326477, -0.8071282505989075, 0.6714313631484632, 1759354388623736177
-0.12137478590011597, 0.7902497053146362, 0.5743567790239791, 1759354388646776558
-0.4331068992614746, 0.840718150138855, 0.696732028888496, 1759354388683839041
0.14664745330810547, 0.08431291580200195, 0.6155662895268654, 1759354388714954456
0.04758530855178833, -0.16809701919555664, 0.6210594994871205, 1759354388745020145
-0.10040152072906494, -0.20870375633239746, 0.6136588002738677, 1759354388776329348
-0.03633677959442139, 0.4456981420516968, 0.6063920746460808, 1759354388808205235
0.36004501581192017, 0.7842698097229004, 0.6809811468256058, 1759354388835266244
-0.04337233304977417, -0.05764883756637573, 0.615380405417288, 1759354388865228611
0.6644045114517212, 0.08044695854187012, 0.6026730293506739, 1759354388895311732
-0.5131147503852844, 0.5049276351928711, 0.5710437562590571, 1759354388926115428
0.09902715682983398, 0.7328437566757202, 0.5818592389131374, 1759354388956145484
-0.0016092658042907715, 0.5405856370925903, 0.6106815424067705, 1759354388986105681
0.35320019721984863, 0.29727399349212646, 0.5788548065862594, 1759354389016736133
0.005483746528625488, -0.07429015636444092, 0.5567401692961229, 1759354389049258157
-0.2945590019226074, 0.443544864654541, 0.6843200956861057, 1759354389076388171
0.9627624750137329, 0.006744742393493652, 0.5765246674525039, 1759354389106134695
-0.583401620388031, -0.22148388624191284, 0.5689703849489807, 1759354389136160212
-0.38365501165390015, -0.24824517965316772, 0.563355900941872, 1759354389166238113
-0.25737905502319336, 0.03355526924133301, 0.5588207025389148, 1759354389196210233
-2.0743248462677, 0.7173853516578674, 0.5750075036481248, 1759354389226243044
-0.5691107511520386, 0.28936123847961426, 0.5612812644070032, 1759354389256505454
-1.2385239601135254, -0.24312996864318848, 0.4776952401386094, 1759354389288614694
-0.962082028388977, 0.14817827939987183, 0.5194692777866058, 1759354389316414612
0.023661792278289795, -0.335909366607666, 0.443301991727094, 1759354389346436237
0.6437065005302429, 0.23777824640274048, 0.4317129719023703, 1759354389376388440
1.666279673576355, 0.5310153961181641, 0.5446305289207201, 1759354389406389987
0.9046083092689514, 0.7221879363059998, 0.5796306017553445, 1759354389436428381
1.2395199537277222, 0.03359019756317139, 0.5323238428501205, 1759354389466561379
1.0668116807937622, 0.09108197689056396, 0.468639298991473, 1759354389497016571
-0.37431812286376953, 0.14997249841690063, 0.4298489868412827, 1759354389528737003
-0.49252718687057495, 0.4499863386154175, 0.48333752265607915, 1759354389558780555
-0.47718220949172974, 0.09925055503845215, 0.5817513447350063, 1759354389585839253
0.39369910955429077, -0.3205775022506714, 0.49953619480214645, 1759354389616872683
-0.24995070695877075, -0.43175071477890015, 0.5230236985505717, 1759354389646899584
0.3843708038330078, 0.252613365650177, 0.5172426518609478, 1759354389677001569
-0.06845951080322266, 0.6517974734306335, 0.4908928581815544, 1759354389707082172
-0.2636067271232605, -0.03587055206298828, 0.48612238626137805, 1759354389737483783
0.5991814136505127, 0.19290781021118164, 0.5006631055680878, 1759354389768771403
-0.45092296600341797, 0.2608031630516052, 0.5315641178949194, 1759354389799359902
0.6977185606956482, 0.3481760621070862, 0.5641291616953371, 1759354389827346863
-0.315082848072052, -0.3049789071083069, 0.5088165630513769, 1759354389857370532
0.09620064496994019, -0.12068629264831543, 0.5187704467974884, 1759354389887400014
-0.04091155529022217, 0.2621782422065735, 0.509417023792833, 1759354389917484792
-0.09081721305847168, 0.29288560152053833, 0.4758354386051438, 1759354389947519773
-0.07523000240325928, -0.11257767677307129, 0.4984538700419155, 1759354389977660198
-0.04867476224899292, 0.13986724615097046, 0.4947909295253609, 1759354390009346368
0.7588798403739929, 0.130743145942688, 0.45037076808402965, 1759354390039916770
-0.2439141869544983, -0.007097721099853516, 0.5099392784687817, 1759354390066845434
-0.16288280487060547, 0.2326459288597107, 0.46890642116144987, 1759354390097857914
-0.30212700366973877, 0.4801431894302368, 0.5033799830479779, 1759354390127901192
-0.2908356189727783, 0.31478333473205566, 0.5009300305657095, 1759354390157996777
-0.14906680583953857, 0.11111938953399658, 0.4902295834359338, 1759354390188039358
-0.28738343715667725, -0.45043545961380005, 0.4922357158215432, 1759354390218191658
0.42220813035964966, -0.6772969365119934, 0.486959910368799, 1759354390249271661
-0.18779951333999634, 0.33580607175827026, 0.4528489044117374, 1759354390280627080
0.06701159477233887, 0.45599937438964844, 0.482912634155835, 1759354390308385614
-0.19335097074508667, 0.3421210050582886, 0.4864231786320914, 1759354390338392866
0.41752731800079346, 0.14569014310836792, 0.47081503103900785, 1759354390368419935
-0.013744831085205078, -0.18217146396636963, 0.4347691964662036, 1759354390398498563
0.05428200960159302, 0.062094032764434814, 0.47829271983013605, 1759354390428548853
0.5153942108154297, 0.12098157405853271, 0.46961167863082637, 1759354390458651875
0.21128368377685547, 0.5029226541519165, 0.4240347367730729, 1759354390488745081
-0.021483659744262695, 0.28559231758117676, 0.405828938349181, 1759354390520070434
-0.4023534655570984, -0.19413787126541138, 0.41393432806607316, 1759354390551772759
-0.012639760971069336, 0.11940973997116089, 0.4906111621433306, 1759354390578991591
-0.10191673040390015, 0.3658355474472046, 0.45360606368418516, 1759354390608961235
0.19472551345825195, 1.1290173530578613, 0.42027811557950057, 1759354390639016965
0.19355297088623047, 0.2413235306739807, 0.40488446836694714, 1759354390669156642
0.41044825315475464, 0.15164369344711304, 0.4403095618240734, 1759354390699179630
0.34229981899261475, -0.4535943269729614, 0.41257762985286844, 1759354390729283251
-0.2671557664871216, -0.5415655374526978, 0.3839911986976229, 1759354390761075350
0.031906187534332275, -0.4130657911300659, 0.396973849760461, 1759354390792579796
0.21219396591186523, 0.030335664749145508, 0.4569954462317203, 1759354390819476393
-0.16045987606048584, 0.4674296975135803, 0.40211450905233403, 1759354390849509207
-0.5228484272956848, 0.6795496344566345, 0.4087152754647914, 1759354390879516682
0.6114689707756042, 0.3413873314857483, 0.3954031214688021, 1759354390909679198
-0.6730421781539917, -0.10830140113830566, 0.40675924400081226, 1759354390939728156
0.8724880814552307, 0.14475595951080322, 0.41256364473340645, 1759354390969787760
0.27073371410369873, -0.18339794874191284, 0.3856777551833609, 1759354391000736194
0.7616738080978394, -0.23063528537750244, 0.36926724233918473, 1759354391033608255
0.024829745292663574, 0.44011884927749634, 0.4562349453165525, 1759354391060002971
0.020580828189849854, 0.3606905937194824, 0.3567422258737275, 1759354391090034099
0.03576093912124634, 0.013977527618408203, 0.3433476084954782, 1759354391120048921
-0.765785813331604, 0.10386979579925537, 0.36768177796211077, 1759354391150218477
0.6913303732872009, -0.33579325675964355, 0.370906567179909, 1759354391180196331
-0.422336220741272, -0.011091649532318115, 0.38110930582722913, 1759354391210328206
-0.23231101036071777, 0.08763474225997925, 0.379186805697827, 1759354391240678314
0.3175361156463623, 0.2680337429046631, 0.3893650714540286, 1759354391272605794
-0.21328657865524292, 0.3535066246986389, 0.4493847012051551, 1759354391299926276
0.5519058704376221, -0.05593639612197876, 0.33701155024608376, 1759354391331255322
-0.24500328302383423, 0.07479995489120483, 0.34746969145800727, 1759354391361326017
0.018292665481567383, 0.02936464548110962, 0.35800316515460373, 1759354391391212633
-0.06197023391723633, 0.09247684478759766, 0.33270431357474206, 1759354391421214623
-0.37640732526779175, -0.45972901582717896, 0.33776972305485525, 1759354391451273964
0.42176562547683716, -0.11338049173355103, 0.36357100615111637, 1759354391481410518
-0.24357402324676514, -0.35235750675201416, 0.3399483076758077, 1759354391512667492
0.09046518802642822, -0.39379286766052246, 0.3389327836407103, 1759354391544084468
-0.31426572799682617, -0.06561136245727539, 0.4177093736687367, 1759354391571375850
0.009873390197753906, 0.6240454316139221, 0.3897830864616853, 1759354391601296457
0.13646024465560913, 0.9619876742362976, 0.3908111290178941, 1759354391631446764
-0.1496676802635193, 0.4987627863883972, 0.3929398654876155, 1759354391661430993
0.6583040952682495, 0.09529620409011841, 0.4156081464663717, 1759354391691501270
-0.24842733144760132, -0.1340557336807251, 0.3968161276329682, 1759354391721533313
0.7525950074195862, 0.05479848384857178, 0.34296867645870355, 1759354391752634635
-0.06284892559051514, -0.2913251519203186, 0.31056202094303437, 1759354391784905304
0.07315045595169067, -0.2611495852470398, 0.4001159544946726, 1759354391811633366
-0.03403890132904053, 0.27730756998062134, 0.3466381681588794, 1759354391841591883
-0.4350734353065491, 0.48510581254959106, 0.27247381000016624, 1759354391865920924
0.41708970069885254, 0.09151530265808105, 0.434045944939595, 1759354391891774088
-0.713645339012146, -0.005256593227386475, 0.410438602364073, 1759354391921779355
0.21175819635391235, 0.31574541330337524, 0.40896892639740534, 1759354391950855451
-0.774389386177063, -0.30243802070617676, 0.36453747655730045, 1759354391982050045
0.43579673767089844, 0.06855475902557373, 0.3927490139857106, 1759354392011986470
-0.37798553705215454, -0.5492643713951111, 0.39153266534795, 1759354392042062699
-0.32252728939056396, -0.3786664605140686, 0.36436913787157443, 1759354392072626942
-0.070514976978302, 0.010942459106445312, 0.3319428061768192, 1759354392105705779
0.13762080669403076, -0.10737282037734985, 0.380239861211018, 1759354392142308849
0.1133875846862793, -0.44686782360076904, 0.3475862194823206, 1759354392172458719
0.07206875085830688, 0.1189115047454834, 0.34423526233853124, 1759354392202407783
-0.13267743587493896, 0.12917578220367432, 0.34460368904627636, 1759354392232790473
-0.42458027601242065, 0.23795264959335327, 0.3442175005367586, 1759354392265218426
0.3855488896369934, -0.09697425365447998, 0.39493526417750713, 1759354392292968323
-0.4558166265487671, -0.03123319149017334, 0.39207897970387107, 1759354392322934111
-0.7827904224395752, 0.3193647861480713, 0.41686988975505107, 1759354392352744761
1.3534678220748901, 0.032061219215393066, 0.3993924957041957, 1759354392382782106
-0.46684563159942627, 0.2620386481285095, 0.40203155324134043, 1759354392411822345
0.06035548448562622, 0.11957252025604248, 0.37725308201691493, 1759354392442882083
0.35044437646865845, -0.04998624324798584, 0.368894783792184, 1759354392472966737
-0.22752463817596436, -0.11046785116195679, 0.32164818975740417, 1759354392505087676
-0.013691484928131104, -0.07351118326187134, 0.33559906794155425, 1759354392535756677
-0.17590296268463135, -0.39636945724487305, 0.40463508900604483, 1759354392563207529
0.03662312030792236, -0.30352604389190674, 0.3823417482984332, 1759354392593189972
-0.2521250247955322, 0.4058351516723633, 0.3584270909943382, 1759354392623275269
0.24383199214935303, 0.42878055572509766, 0.3570052636989509, 1759354392653315254
0.09825676679611206, 0.7807992696762085, 0.3840350658638407, 1759354392683424545
0.16968369483947754, 0.7954973578453064, 0.369081535863755, 1759354392713507870
0.2693021297454834, 0.20500832796096802, 0.3526374518946569, 1759354392744646476
-0.812903881072998, -0.2314944863319397, 0.3466953565775033, 1759354392776786185
0.5525577664375305, -0.11165463924407959, 0.431348767839248, 1759354392803673958
-0.1580967903137207, -0.364621639251709, 0.3610029648783198, 1759354392833681041
0.3722747564315796, -0.7087769508361816, 0.35378293958853707, 1759354392863757061
-0.5684047341346741, -0.258201539516449, 0.3996158073509635, 1759354392892825374
0.3188090920448303, 0.3994177579879761, 0.36713575266018933, 1759354392923910229
0.04499053955078125, 0.5379750728607178, 0.39083325087920556, 1759354392953071223
0.0797838568687439, -0.3004302382469177, 0.34053036167394607, 1759354392984957822
-0.3086690306663513, 0.08021366596221924, 0.36072713850365873, 1759354393017144475
-0.31209003925323486, 0.8416727781295776, 0.4460930557997772, 1759354393044199604
0.06129676103591919, 0.30459463596343994, 0.3424148777110949, 1759354393074216869
-0.043864309787750244, 0.10918581485748291, 0.3449434895967639, 1759354393104288556
0.1849401593208313, 0.09809041023254395, 0.37062825492726015, 1759354393134362421
0.04458963871002197, 0.1386094093322754, 0.35777602368216416, 1759354393164455358
-0.17070043087005615, -0.5103822350502014, 0.33679313726275795, 1759354393194559721
0.1408950686454773, -0.6352852582931519, 0.40177854149540587, 1759354393224755537
0.07281452417373657, 0.4681144952774048, 0.3633895958525973, 1759354393256762776
0.14214497804641724, 0.5434510111808777, 0.3704520578839849, 1759354393284706597
