acc_x, acc_y, angular_z, stamp, 
0.005356788635253906, 0.015973567962646484, 4.8497299924550755e-11, 1759352046100493234
0.026781201362609863, -0.03446894884109497, 6.035878324336683e-11, 1759352046128550482
-0.020043015480041504, 0.033811867237091064, 8.360805758822313e-11, 1759352046158444333
0.02295660972595215, -0.014677047729492188, 8.242661071364333e-11, 1759352046188504141
-0.00046962499618530273, 0.00500863790512085, 9.031535128166395e-11, 1759352046218581647
-0.012996792793273926, -0.003977417945861816, 8.175232400045327e-11, 1759352046248621087
-0.014830350875854492, 0.024834096431732178, 8.197354414477777e-11, 1759352046278737498
-0.03605484962463379, -0.01648491621017456, 5.3256395275605354e-11, 1759352046308990260
-0.003273904323577881, -0.00025266408920288086, 1.1387570191537568e-12, 1759352046339822218
0.02756357192993164, -0.012877166271209717, -6.339004478615588e-11, 1759352046371435978
0.02225494384765625, -0.0038611888885498047, -6.806398009790276e-11, 1759352046398911406
0.011540889739990234, -0.023479342460632324, -8.140266522998695e-11, 1759352046428982359
-0.03494471311569214, 0.025187790393829346, -9.982487560796259e-11, 1759352046459106315
0.00864630937576294, 0.021653592586517334, 2.053492624446575e-06, 1759352046488128616
0.02693629264831543, 8.374452590942383e-05, -2.678606890220486e-10, 1759352046519301415
-0.007051348686218262, -0.008900284767150879, -2.6450992846596046e-10, 1759352046549275354
-0.014104783535003662, -0.03738677501678467, -3.8283827898052485e-10, 1759352046580563485
-0.006416499614715576, 0.004267394542694092, -5.774039360584076e-10, 1759352046670309536
-0.022529542446136475, -0.009899318218231201, -5.531809914892059e-10, 1759352046700247530
-0.020511269569396973, -0.011353135108947754, -7.533552461183161e-10, 1759352046730250040
0.04445779323577881, 0.0157088041305542, -8.74925586968132e-10, 1759352046760308669
0.013768970966339111, 0.003122866153717041, -8.125168225222971e-10, 1759352046790286758
-0.009920835494995117, -0.023746013641357422, -7.015211035338202e-10, 1759352046821462629
-0.02072805166244507, -0.00921255350112915, -6.182416808209868e-10, 1759352046852668408
0.022516310214996338, 0.014175176620483398, -6.808800901002843e-10, 1759352046880331575
0.027777254581451416, -0.012929797172546387, -5.435197514566167e-10, 1759352046910871946
0.0326729416847229, -0.0022209882736206055, -3.266918814058201e-10, 1759352046940375921
0.007146477699279785, -0.007578492164611816, -1.988488644508368e-06, 1759352046970353892
0.0052912235260009766, 0.0444832444190979, -1.2682697204230447e-10, 1759352047000522586
0.028260469436645508, 0.011919796466827393, -3.206333062840912e-11, 1759352047030485171
-0.03747153282165527, 0.01835721731185913, 5.451089442890778e-11, 1759352047120502576
0.023628056049346924, 0.03589290380477905, -1.7031885168741974e-12, 1759352047150522748
0.003620147705078125, -0.027544021606445312, -1.7637579447336448e-10, 1759352047180586740
0.00695192813873291, -0.02246546745300293, -2.9871279422635983e-10, 1759352047210678388
-0.020118772983551025, -0.009865045547485352, -3.251949303420013e-10, 1759352047240735816
-0.0052443742752075195, -0.004545927047729492, -2.1513820134428581e-10, 1759352047300912135
0.009058594703674316, -0.015350282192230225, -2.035626810445211e-10, 1759352047333231791
0.001969575881958008, -0.002753138542175293, -1.595754520702338e-10, 1759352047363847731
-0.012004256248474121, 0.015343248844146729, -1.4746134181067742e-10, 1759352047401050632
0.017179250717163086, 0.000948488712310791, 1.979904166875596e-06, 1759352047431155393
0.008450984954833984, 0.017105579376220703, 1.981564228932937e-06, 1759352047461235900
-0.030787169933319092, -0.009871482849121094, 9.430319123893997e-11, 1759352047493285255
-0.010529696941375732, -0.008135676383972168, 1.777009226594421e-10, 1759352047523903268
0.02756601572036743, -0.006469547748565674, 3.0924147648173785e-10, 1759352047551387868
0.011426568031311035, -0.012015581130981445, 3.328825875752161e-10, 1759352047581445898
-0.006646156311035156, -0.010189950466156006, 3.0434496194458677e-10, 1759352047611484456
-0.02266031503677368, -0.038689374923706055, 2.4175693583549946e-10, 1759352047641521752
0.0063561201095581055, 0.015457212924957275, 1.6709538493954144e-10, 1759352047671566770
0.020810365676879883, -0.023972630500793457, 1.4896607521683125e-10, 1759352047701738030
-0.004476726055145264, -0.032689690589904785, 1.9189806363113064e-06, 1759352047732799484
0.004540741443634033, 0.010911762714385986, -1.0668305067948001e-10, 1759352047764639642
-0.0005941390991210938, 0.030937492847442627, -2.448975213769825e-10, 1759352047791888742
0.02819591760635376, 0.007687211036682129, -2.664021166958511e-10, 1759352047821931332
0.017342746257781982, -0.026349782943725586, -2.998428638473537e-10, 1759352047852013015
-0.01498711109161377, -0.020725488662719727, -3.180703808870493e-10, 1759352047882073612
-0.032686471939086914, 0.022717297077178955, -4.991807802223076e-10, 1759352047911115200
0.046558678150177, 0.022760510444641113, -4.826989350537438e-10, 1759352047942177442
0.012054443359375, -0.006071031093597412, -3.7565085930637896e-10, 1759352047973141795
-0.006411135196685791, -0.0063037872314453125, -2.569366291529853e-10, 1759352048004655951
-0.024718165397644043, 0.006049692630767822, -8.896872594119872e-11, 1759352048032468086
-0.015698730945587158, 0.029063940048217773, -5.8172846948343146e-11, 1759352048062409856
0.03266018629074097, 0.003405153751373291, -1.3823548288211586e-12, 1759352048092509197
-0.01441049575805664, -0.01143568754196167, 4.6141751762934274e-12, 1759352048122532606
0.005305111408233643, 0.0009493231773376465, -3.297112106626367e-11, 1759352048152637509
-0.021530568599700928, 0.0061966776847839355, -2.930693802195528e-11, 1759352048182689197
0.012719273567199707, 0.018499314785003662, 2.8340083618206123e-12, 1759352048212786813
0.014301896095275879, -0.014130353927612305, 3.867441532287558e-12, 1759352048244704147
0.13624733686447144, 0.024806678295135498, 0.0007960931847446976, 1759352048363024066
1.0623292922973633, 0.2607532739639282, 0.031358953748041915, 1759352048393143335
1.1443548202514648, -0.02086418867111206, 0.1432984440126837, 1759352048423287292
0.892826497554779, 0.2104734182357788, 0.16231912776248938, 1759352048453238519
0.9059452414512634, -0.0809866189956665, 0.2079194533439376, 1759352048485616321
0.19541871547698975, 0.15728044509887695, 0.2621390361964456, 1759352048516714676
0.7177211046218872, 0.2443256378173828, 0.3601797673734345, 1759352048543403420
0.6075227856636047, 0.1767864227294922, 0.39626131305696294, 1759352048573512674
0.5082231760025024, -0.20627951622009277, 0.45371894907262034, 1759352048603533329
0.5052903890609741, 0.07236570119857788, 0.47193024412443985, 1759352048633594130
-0.1255764365196228, 0.7265309691429138, 0.5106742426833267, 1759352048663647877
0.1562456488609314, -0.09313231706619263, 0.49576558625665035, 1759352048693737211
-0.4454963207244873, -0.4453262686729431, 0.4564016149242287, 1759352048724113985
-0.07028353214263916, 0.38297438621520996, 0.42364971913482063, 1759352048756879643
-0.5728344321250916, 0.5710150003433228, 0.5432426575487262, 1759352048783896554
0.17719978094100952, -0.47446322441101074, 0.5021092764229399, 1759352048813985912
-0.30792367458343506, -0.17035681009292603, 0.5022889888825276, 1759352048843025116
0.3362380862236023, 0.6717292070388794, 0.4938567641641039, 1759352048873109101
-0.09760993719100952, -0.1816118359565735, 0.4969642115113735, 1759352048904186723
0.03684401512145996, -0.04868048429489136, 0.48807999257936163, 1759352048934331745
0.019742369651794434, 0.3974400758743286, 0.47092484763138087, 1759352048964798481
-0.14575976133346558, -0.16383206844329834, 0.46039479930130894, 1759352048997331360
-0.24325847625732422, 0.12397980690002441, 0.5547789118013179, 1759352049024495060
-0.18080943822860718, -0.14679020643234253, 0.5048954006619129, 1759352049055264270
0.4692421555519104, 0.09297466278076172, 0.5497602888750387, 1759352049084545344
-0.16305071115493774, 0.5147490501403809, 0.5097301989914573, 1759352049115251461
0.25878816843032837, -0.17133378982543945, 0.514391660151603, 1759352049145222809
0.22010934352874756, 0.02136242389678955, 0.5096002534665462, 1759352049175539471
0.06776762008666992, 0.22388571500778198, 0.5129866820168077, 1759352049205345766
-0.06175875663757324, -0.062330782413482666, 0.46384482633634166, 1759352049236908615
0.13557785749435425, 0.2587076425552368, 0.47773522590221923, 1759352049266976626
-0.3130388855934143, 0.06810784339904785, 0.529298573017389, 1759352049295439191
0.13167762756347656, -0.006072342395782471, 0.5345885533694391, 1759352049325378177
-0.07376736402511597, 0.3235398530960083, 0.5414841639103023, 1759352049355397881
0.3418661952018738, 0.1170225739479065, 0.5230569941803103, 1759352049385373799
-0.06771385669708252, -0.15662610530853271, 0.5052728201867691, 1759352049415494441
0.0825965404510498, 0.4209578037261963, 0.4959824114685488, 1759352049445555126
0.24930202960968018, 0.022887825965881348, 0.49029249149934423, 1759352049476855752
-0.47341859340667725, -0.2893304228782654, 0.4660234351768527, 1759352049508992549
0.03643345832824707, 0.33892810344696045, 0.5421411119408069, 1759352049535638823
-0.08035552501678467, 0.37260156869888306, 0.49502939390980627, 1759352049565629597
-0.006894946098327637, -0.4781331419944763, 0.5287426887190739, 1759352049595643096
0.22414064407348633, 0.0858004093170166, 0.5386076610103088, 1759352049625653697
0.0702243447303772, 0.5646076202392578, 0.5126242164007516, 1759352049655717457
-0.19912880659103394, -0.4048709273338318, 0.48776831643378327, 1759352049685838227
0.11059647798538208, -0.12644881010055542, 0.47155955540271954, 1759352049716758689
0.1053316593170166, 0.7337555289268494, 0.4641973659062454, 1759352049748776848
-0.298261821269989, -0.3692234754562378, 0.5665008172261223, 1759352049776027710
-0.1387748122215271, -0.11818408966064453, 0.5071656879969556, 1759352049805079369
0.18870806694030762, -0.039182305335998535, 0.47269792254707804, 1759352049836260241
0.07938098907470703, 0.23787921667099, 0.5244310886779675, 1759352049866225658
-0.19916003942489624, 0.007143676280975342, 0.5190849666976828, 1759352049896225995
0.3737661838531494, 0.045520246028900146, 0.5199303108920387, 1759352049926310023
-0.35404497385025024, 0.13493943214416504, 0.4686163082300598, 1759352049957774951
0.28349459171295166, 0.07499563694000244, 0.4580029806451578, 1759352049989097232
-0.2071901559829712, -0.1072893738746643, 0.5497127840560221, 1759352050016502426
-0.2692181468009949, 0.29027706384658813, 0.4963955568890479, 1759352050046497377
0.006242036819458008, 0.15227293968200684, 0.5290090714819257, 1759352050076558750
-0.10277080535888672, -0.13010817766189575, 0.5318161795121965, 1759352050106648979
0.018339872360229492, 0.14531993865966797, 0.5176245897712903, 1759352050136730955
0.40865558385849, 0.07650339603424072, 0.5292824045503774, 1759352050166807403
0.07788872718811035, -0.005224466323852539, 0.5225458900149468, 1759352050196914398
0.05966353416442871, 0.32672977447509766, 0.4743573533800863, 1759352050228773506
0.23933029174804688, 0.3003358840942383, 0.4748349003101145, 1759352050259557178
-0.6347196102142334, -0.32969748973846436, 0.5438851477129906, 1759352050286989757
0.3721129298210144, 0.3935698866844177, 0.5097578558532975, 1759352050317054376
-0.17507469654083252, 0.2099817395210266, 0.5516662260856812, 1759352050346121840
-0.052580177783966064, -0.7553480863571167, 0.4852955308073427, 1759352050377463653
0.24249064922332764, 0.5193087458610535, 0.4974763780674051, 1759352050407338341
0.0360332727432251, 0.45658737421035767, 0.49794441671333256, 1759352050437408504
-0.30263590812683105, -0.5324347615242004, 0.4649122103629658, 1759352050469182737
0.15142011642456055, 0.046986281871795654, 0.49615905833382956, 1759352050500808320
0.2672284245491028, 0.7089629173278809, 0.5449271860724978, 1759352050537803625
-0.3745427131652832, 0.4543045163154602, 0.506082258206956, 1759352050567760214
-0.2929222583770752, -0.8603160977363586, 0.510438247967591, 1759352050597829998
0.2266189455986023, -0.6285306215286255, 0.49110130942756575, 1759352050629027044
-0.11966538429260254, 0.6973272562026978, 0.4926819655442247, 1759352050661248945
0.1669139266014099, 0.18721354007720947, 0.5731056036621843, 1759352050687908842
-0.2562870979309082, -0.4011465907096863, 0.4812965866798983, 1759352050717924910
0.5413358807563782, 0.019032955169677734, 0.49593191277619586, 1759352050748000485
-0.18470895290374756, 0.36860811710357666, 0.494978228044532, 1759352050778030338
0.2139022946357727, -0.2631532549858093, 0.47940437210068343, 1759352050808085551
-0.10770666599273682, 0.15223491191864014, 0.48454022090955834, 1759352050838153356
-0.20183181762695312, 0.341014564037323, 0.488074993059134, 1759352050868998243
0.3104604482650757, -0.14543277025222778, 0.5099653171946791, 1759352050900841743
-0.20445525646209717, 0.12932109832763672, 0.580224572801442, 1759352050928451999
-0.30125969648361206, 0.12268102169036865, 0.5063621259430213, 1759352050958435792
0.04128366708755493, -0.08553791046142578, 0.49554437804226775, 1759352050988515740
0.7560213208198547, 0.19653761386871338, 0.4990304438298666, 1759352051018570575
-0.16823774576187134, 0.1357833743095398, 0.5094284731957759, 1759352051048599254
-0.14491617679595947, -0.22179299592971802, 0.5057924972141408, 1759352051078712057
0.06528306007385254, 0.04901164770126343, 0.47385616306739814, 1759352051109297745
-0.17625212669372559, 0.17397356033325195, 0.45976238706530964, 1759352051140128138
-0.2543331980705261, -0.024457216262817383, 0.5265216940903085, 1759352051169006336
0.2720370888710022, -0.11553490161895752, 0.5448367480123133, 1759352051198909733
0.5048556327819824, 0.39858800172805786, 0.5189010894668266, 1759352051229031273
-0.24753981828689575, -0.49802738428115845, 0.43363343621011047, 1759352051251486362
0.36567366123199463, -0.5368402004241943, 0.5280915050363585, 1759352051288109454
-0.05239945650100708, 0.6020290851593018, 0.4826893717808911, 1759352051318188158
-0.47301918268203735, 0.11979824304580688, 0.49032633632575656, 1759352051349260797
0.1312045454978943, -0.6768819093704224, 0.48800966888378644, 1759352051380855005
0.4829851984977722, 0.9753708839416504, 0.4817064953065933, 1759352051411816189
0.21998077630996704, 0.9476297497749329, 0.5574293017120934, 1759352051439521103
-0.03663671016693115, -0.3493587374687195, 0.49564985112343746, 1759352051469767912
0.2514156699180603, -0.5229215025901794, 0.5065600705360296, 1759352051499677361
0.11694008111953735, 0.818313717842102, 0.5349861928725078, 1759352051529623389
-0.16035151481628418, 0.19702202081680298, 0.482579602542968, 1759352051559670671
0.080402672290802, -0.4215576648712158, 0.4636703524708656, 1759352051590435026
0.039784371852874756, 0.17238277196884155, 0.47616067928119193, 1759352051621310379
-0.2829040288925171, 0.21561789512634277, 0.4809313373688834, 1759352051653047821
0.19168239831924438, -0.2047519087791443, 0.5805173987230063, 1759352051680478782
-0.2555791139602661, 0.09291768074035645, 0.5178526924762641, 1759352051710547682
0.4283236265182495, 0.07683545351028442, 0.5086720765963078, 1759352051740523766
-0.34035295248031616, 0.02844405174255371, 0.5117364420880398, 1759352051770563927
0.1393471360206604, 0.012105822563171387, 0.4988318314220339, 1759352051800616009
-0.13356828689575195, 0.15944170951843262, 0.5150614036732772, 1759352051830323357
-0.03988683223724365, -0.2652829885482788, 0.46234530039082083, 1759352051861810947
-0.012063264846801758, 0.046533942222595215, 0.4638621869749941, 1759352051893047079
-0.08893579244613647, 0.13828831911087036, 0.5561218600569612, 1759352051920520921
-0.3277137875556946, -0.04878568649291992, 0.5100451678319565, 1759352051950528908
0.10877203941345215, 0.08848881721496582, 0.5190138133914818, 1759352051980592288
0.271364688873291, 0.0502171516418457, 0.5191816034464405, 1759352052010694450
-0.4469307065010071, -0.10594767332077026, 0.5099364094790416, 1759352052040710289
0.3186376690864563, -0.104880690574646, 0.514617312081589, 1759352052070742345
0.17643296718597412, 0.3525860905647278, 0.5111486022858721, 1759352052100861199
-0.32941073179244995, 0.13179391622543335, 0.4415236598006864, 1759352052133750014
-0.0971221923828125, -0.4947602152824402, 0.47769609582222705, 1759352052162910625
0.6558077335357666, 0.44005078077316284, 0.5252637520772775, 1759352052191050162
-0.24286848306655884, 0.8905778527259827, 0.518568543417076, 1759352052220194906
0.05234944820404053, -0.542320191860199, 0.4862684230086614, 1759352052251156421
-0.06821918487548828, -0.20618337392807007, 0.5106717125226741, 1759352052281178710
0.536849319934845, 0.6883798241615295, 0.49773728061785616, 1759352052311275641
-0.3583601713180542, -0.2693004608154297, 0.49983474277446527, 1759352052341307648
0.04544466733932495, -0.4262341856956482, 0.47368805610031567, 1759352052373090773
-0.133986234664917, 0.6296895146369934, 0.489223922504439, 1759352052404091710
-0.11202490329742432, 0.2878161072731018, 0.5407742405322319, 1759352052431556915
-0.1877179741859436, -0.37263554334640503, 0.5036322780038106, 1759352052461586428
0.5323302745819092, -0.05881154537200928, 0.5440684375905132, 1759352052491658283
0.3251895308494568, 0.2522655129432678, 0.5302029847580209, 1759352052521751029
-0.8042715787887573, -0.12195980548858643, 0.507321283483542, 1759352052551753356
0.3551632761955261, 0.002969086170196533, 0.48628328254574854, 1759352052581905891
-0.17631793022155762, 0.16474437713623047, 0.46287262883434444, 1759352052613236427
0.14433813095092773, -0.05596119165420532, 0.4485188225908273, 1759352052645706688
-0.12925595045089722, 0.02593088150024414, 0.5809301257413269, 1759352052672062930
-0.1963179111480713, 0.11284679174423218, 0.5096442467790762, 1759352052702062405
-0.18658661842346191, -0.09370291233062744, 0.49752982183253874, 1759352052732171356
0.03951537609100342, 0.15399283170700073, 0.5014111803568152, 1759352052762187269
-0.06928712129592896, 0.051754772663116455, 0.5242424010649853, 1759352052792278273
-0.07897335290908813, -0.08410787582397461, 0.5146226427897566, 1759352052822329324
0.2615853548049927, 0.10813069343566895, 0.4888982868062732, 1759352052852131126
0.02264028787612915, 0.11056983470916748, 0.44021273620656093, 1759352052885081127
0.018190741539001465, -0.21395587921142578, 0.5418700510940913, 1759352052912589446
-0.4582695960998535, -0.05528467893600464, 0.5249365516968796, 1759352052942570601
0.4508267641067505, 0.551125705242157, 0.5127440721546591, 1759352052972688025
-0.7186394929885864, 0.5798194408416748, 0.49178904033493254, 1759352053002988500
0.40347152948379517, -0.40621113777160645, 0.5028289811429972, 1759352053032839867
-0.38003939390182495, -0.15260297060012817, 0.5154207528295712, 1759352053062812867
0.7019761800765991, 0.8313376903533936, 0.5075237626985097, 1759352053093829125
-0.6029423475265503, -0.6733245849609375, 0.4790737551704578, 1759352053125088517
-0.1408226490020752, -0.4633967876434326, 0.4737720278635556, 1759352053155062022
0.38870447874069214, 1.0758801698684692, 0.5320407203876869, 1759352053183055737
-0.727199912071228, -0.390508770942688, 0.5108615783955969, 1759352053212140764
0.4870203733444214, -0.6536445617675781, 0.5011412083050126, 1759352053243192120
0.22451496124267578, 0.8926264643669128, 0.5626876926738795, 1759352053273282263
-0.05189913511276245, 0.07200044393539429, 0.5069310276922584, 1759352053303307213
-0.4186115860939026, -0.5702551603317261, 0.48783693802280137, 1759352053333480780
1.0585700273513794, 0.2904353141784668, 0.47978571962565697, 1759352053365189088
-0.4200339913368225, 0.22162091732025146, 0.4956508264410621, 1759352053396113634
0.3171480894088745, -0.23758786916732788, 0.5515046765037164, 1759352053423633851
-0.34693652391433716, 0.23613238334655762, 0.48795449087514736, 1759352053453665795
0.08943217992782593, 0.15760284662246704, 0.48477567906843394, 1759352053483696532
-0.2955467104911804, -0.23487627506256104, 0.498697042607887, 1759352053513778536
-0.11903810501098633, 0.0030708909034729004, 0.5103612108474652, 1759352053543882923
-0.08500552177429199, 0.37343132495880127, 0.5370746764429097, 1759352053573958937
0.01247107982635498, -0.21764975786209106, 0.4861874042744949, 1759352053605517212
-0.05677342414855957, -0.053904831409454346, 0.4623581111182199, 1759352053636957470
0.21310311555862427, 0.1076279878616333, 0.5893926805396932, 1759352053663098199
-0.04491448402404785, -0.08884304761886597, 0.49967608906659866, 1759352053693110658
-0.5406474471092224, 0.12999922037124634, 0.45131785668035346, 1759352053724363082
0.519902765750885, 0.20694106817245483, 0.492925176777756, 1759352053754272735
-0.6814196109771729, -0.364188551902771, 0.4970738079793209, 1759352053784474324
-0.0569835901260376, -0.43805956840515137, 0.5016202970964779, 1759352053814487642
-0.12570339441299438, 0.05379354953765869, 0.5167668898141264, 1759352053845148140
0.2604668140411377, 0.9781113266944885, 0.4798992425112031, 1759352053877229975
-0.4280551075935364, -0.7126268148422241, 0.5266776697891561, 1759352053904578475
0.3670496344566345, -0.36596477031707764, 0.4958395118168048, 1759352053934691544
0.10329669713973999, 1.0686405897140503, 0.5071089781240328, 1759352053964745043
-0.5776023864746094, -0.6026820540428162, 0.5080046309146313, 1759352053994758997
0.03106832504272461, -0.3971313238143921, 0.4921033686428242, 1759352054025554889
-0.10681051015853882, 0.7524831295013428, 0.517251770629892, 1759352054055565336
-0.20695406198501587, -0.21310275793075562, 0.5171470969381254, 1759352054085615840
0.278980553150177, -0.5041584968566895, 0.47342415297432355, 1759352054117468571
-0.16851365566253662, 0.5659626722335815, 0.5262177813927617, 1759352054147084621
-0.15326035022735596, 0.19694548845291138, 0.5205929703844732, 1759352054175611685
-0.17436093091964722, -0.2654153108596802, 0.4691151354258801, 1759352054205650316
0.019029557704925537, -0.07421576976776123, 0.48894989706073366, 1759352054235645372
-0.2583020329475403, 0.4130660891532898, 0.5038840847925399, 1759352054265720857
-0.1353365182876587, -0.3456277847290039, 0.5145825262648968, 1759352054295696691
-0.05033683776855469, -0.004356741905212402, 0.5031654933924944, 1759352054325789787
0.11635684967041016, 0.20211690664291382, 0.4987199222115301, 1759352054357045373
-0.041104793548583984, 0.04237908124923706, 0.5109977167289175, 1759352054388536734
-0.07783514261245728, 0.048053860664367676, 0.5631699288504247, 1759352054415867163
-0.34649592638015747, 0.08384746313095093, 0.5116020366869608, 1759352054445886703
-0.08889877796173096, -0.038188815116882324, 0.4915034732798059, 1759352054475887421
0.13480496406555176, 0.1077234148979187, 0.47719009205203294, 1759352054505950892
-0.18508630990982056, 0.02652108669281006, 0.5170373319418026, 1759352054535953770
-0.6429958939552307, -0.1007729172706604, 0.5125049120194608, 1759352054566079555
0.007723331451416016, -0.1431347131729126, 0.49152162867841837, 1759352054597022141
0.05143481492996216, -0.13950222730636597, 0.45543356589329176, 1759352054629703958
-0.04519397020339966, 0.47623753547668457, 0.5584205189563336, 1759352054656253553
-0.0631401538848877, -0.2638965845108032, 0.5270622250741351, 1759352054686195435
0.3670753240585327, -0.04773736000061035, 0.5083341269311636, 1759352054716228262
-0.36368173360824585, 0.5462964177131653, 0.48159087143380375, 1759352054746325792
0.1165781021118164, -0.400851845741272, 0.4801690998241452, 1759352054776389322
-0.38783085346221924, -0.23637038469314575, 0.49137026036980463, 1759352054806473565
-0.16271650791168213, 0.7253472805023193, 0.5159190091418345, 1759352054837047699
-0.36846113204956055, -0.46952974796295166, 0.4997289405494653, 1759352054869073146
0.3600471615791321, -0.298866331577301, 0.5575665823143382, 1759352054896644933
-0.0408247709274292, 0.6716194748878479, 0.5258862921040293, 1759352054926720526
-0.43974119424819946, -0.15467000007629395, 0.4995257929767306, 1759352054956730493
0.18947672843933105, -0.38392704725265503, 0.4920757647674006, 1759352054986935135
3.045797348022461e-05, 0.47786515951156616, 0.5283467548579593, 1759352055016880695
-0.2949512004852295, 0.2435060739517212, 0.4795240431395586, 1759352055047007996
-0.05303311347961426, -0.28114938735961914, 0.46933685895524785, 1759352055077483226
0.4065515398979187, -0.03956031799316406, 0.4649160949028434, 1759352055109416218
-0.46371036767959595, 0.21275115013122559, 0.5248334929630575, 1759352055139027064
0.12520956993103027, -0.005879580974578857, 0.5506124582036116, 1759352055177222110
-0.14354312419891357, 0.046564579010009766, 0.48133305026328976, 1759352055207268741
0.2947051525115967, -0.019240140914916992, 0.48982578168034263, 1759352055237383464
0.037233591079711914, -0.18768525123596191, 0.4845682403659905, 1759352055269519591
0.1574499011039734, 0.18059152364730835, 0.5144915228908835, 1759352055299185381
-0.282615602016449, 0.12352854013442993, 0.5186000170275448, 1759352055327577679
0.14995801448822021, -0.14862918853759766, 0.4883788280622895, 1759352055357649167
-0.3280544877052307, 0.16729027032852173, 0.4961600442014537, 1759352055387928553
0.24465256929397583, -0.12734806537628174, 0.522041900305094, 1759352055417725984
-0.18188339471817017, 0.3256787657737732, 0.5158738462188494, 1759352055447759356
-0.04348331689834595, 0.18795782327651978, 0.4822686938633504, 1759352055478009719
-0.12545228004455566, -0.2225906252861023, 0.48036343059674336, 1759352055508107862
0.1154090166091919, 0.26215600967407227, 0.440210422148595, 1759352055541556703
-0.3351265788078308, 0.08791613578796387, 0.5627058520848005, 1759352055568076982
-0.02362149953842163, -0.3637655973434448, 0.5138910676723136, 1759352055597111081
0.18911677598953247, 0.48769432306289673, 0.474035144319108, 1759352055628181518
0.09013587236404419, 0.1750195026397705, 0.5113784581552754, 1759352055658204942
-0.17583847045898438, -0.5083609819412231, 0.5153913252916371, 1759352055688263313
-0.19017338752746582, 0.13875120878219604, 0.51213700298801, 1759352055718326063
0.20635414123535156, 0.5768845677375793, 0.5247485302503796, 1759352055747127135
-0.19451028108596802, -0.33158212900161743, 0.42137708590571904, 1759352055781804558
0.15255284309387207, -0.22742384672164917, 0.5577563723752568, 1759352055808595072
-0.19366908073425293, 0.7263399362564087, 0.5027430791913817, 1759352055838613717
-0.4062058925628662, -0.4144100546836853, 0.49481119420024994, 1759352055868685580
-0.04339432716369629, -0.2000422477722168, 0.5034759307504877, 1759352055898724729
-0.094318687915802, 0.6789084672927856, 0.5165402828513211, 1759352055928788234
0.16976624727249146, -0.1772947907447815, 0.5314162170182816, 1759352055958853676
0.32791221141815186, -0.2565906047821045, 0.5226209559414958, 1759352055988141219
-0.13200390338897705, 0.3963882327079773, 0.45278804687086177, 1759352056021391592
0.043084800243377686, -0.05327749252319336, 0.5407643318779823, 1759352056049043317
-0.028681397438049316, -0.012039661407470703, 0.4714013404111512, 1759352056079225515
-0.20844632387161255, -0.08528310060501099, 0.49220015726917477, 1759352056109163810
0.19024908542633057, 0.1232907772064209, 0.49601657920724046, 1759352056139266563
-0.33894193172454834, 0.22197777032852173, 0.5112849355665103, 1759352056169433245
0.06452637910842896, 0.01232224702835083, 0.5313100628094608, 1759352056199394827
-0.24584197998046875, 0.08613371849060059, 0.5056420123648964, 1759352056229830563
0.2514963150024414, 0.1108407974243164, 0.503640299678491, 1759352056260139366
-0.06876158714294434, -0.13289713859558105, 0.5095863982271773, 1759352056291125116
-0.2848415970802307, 0.41432029008865356, 0.5232011985246656, 1759352056319817082
0.11981427669525146, 0.24492287635803223, 0.48817687547544103, 1759352056349714920
0.3093172311782837, -0.01776111125946045, 0.425279482800108, 1759352056372504931
0.07370012998580933, 0.4448036551475525, 0.533594818434393, 1759352056399820177
-0.37229204177856445, -0.44276273250579834, 0.5250752764740131, 1759352056429986364
0.25350141525268555, -0.08324497938156128, 0.5400185301956839, 1759352056459918210
-0.3406134843826294, 0.8625781536102295, 0.5148396265835845, 1759352056489959481
0.7299908399581909, -0.4891776442527771, 0.4992700406710059, 1759352056520025454
-0.3056349754333496, -0.22017979621887207, 0.4961397821419211, 1759352056550080516
0.5902920365333557, 0.7984362840652466, 0.48953824472210955, 1759352056581234593
-0.3412597179412842, -0.5441641807556152, 0.45737427998872887, 1759352056613731114
-0.1259250044822693, -0.5588050484657288, 0.5167908274291044, 1759352056650348996
0.3914891481399536, 0.09592020511627197, 0.4881986001891438, 1759352056680378329
-0.6312224268913269, 0.688934862613678, 0.4949932596617857, 1759352056710428862
-0.06131184101104736, -0.5080689191818237, 0.5489995060262859, 1759352056740567916
-0.12152677774429321, 0.02899312973022461, 0.5199800306831389, 1759352056773323359
-0.1762649416923523, 0.7282232642173767, 0.5512148671117953, 1759352056800672154
-0.14114880561828613, -0.28532588481903076, 0.5057333955652032, 1759352056830702659
0.17323178052902222, -0.44462019205093384, 0.5094839702071794, 1759352056860796616
-0.4383554458618164, 0.7245180010795593, 0.4954893994021028, 1759352056890804539
0.0009648799896240234, 0.23131710290908813, 0.4780991742037186, 1759352056920897696
-0.33085793256759644, -0.19339483976364136, 0.4897175315260804, 1759352056950973291
-0.571510910987854, -0.018603265285491943, 0.5055314450849916, 1759352056981439904
0.32977163791656494, -0.15226638317108154, 0.4877858649454125, 1759352057013976053
0.10278445482254028, 0.3502890467643738, 0.563597581434008, 1759352057041161198
-0.31878888607025146, 0.028342902660369873, 0.507159710830488, 1759352057070130571
0.24153649806976318, -0.10222560167312622, 0.46558210257436966, 1759352057101239449
0.09555697441101074, 0.20678699016571045, 0.4403858870295093, 1759352057123343225
-0.5780479311943054, -0.04184746742248535, 0.5234261154351916, 1759352057161374278
-0.2350374460220337, 0.3679572343826294, 0.5041443491152446, 1759352057191405311
0.33957910537719727, 0.2200155258178711, 0.5220790610808319, 1759352057220531692
-0.3600749969482422, -0.347395658493042, 0.48215135956620253, 1759352057252776604
0.18149453401565552, 0.3957429528236389, 0.4794313863115227, 1759352057284366913
-0.46849775314331055, 0.3471779227256775, 0.5628879981516194, 1759352057311718243
-0.17214137315750122, -0.4543612599372864, 0.5126025270521852, 1759352057341745252
-0.02040344476699829, 0.3057144284248352, 0.493509101293014, 1759352057371815788
-0.10937213897705078, 0.20376646518707275, 0.47974021216701784, 1759352057401895240
0.0649833083152771, -0.35519152879714966, 0.48789365758705566, 1759352057431934019
-0.06189894676208496, 0.24525558948516846, 0.4935470970287426, 1759352057462017453
-0.24712252616882324, 0.4098321795463562, 0.4801097257458798, 1759352057493383372
-0.05256974697113037, -0.29837971925735474, 0.466717468687997, 1759352057526178197
-0.30483096837997437, -0.2213243842124939, 0.5896015453835237, 1759352057552191510
-0.3118084669113159, 0.7777368426322937, 0.49041306111127, 1759352057582248648
0.2528216242790222, -0.23786133527755737, 0.5110872789228994, 1759352057612290808
-0.2173965573310852, -0.18934667110443115, 0.5144253218164331, 1759352057642385088
-0.15112030506134033, 0.5039334297180176, 0.48956811869152034, 1759352057672448219
-0.18800193071365356, 0.09130388498306274, 0.5064016691471135, 1759352057702522021
-0.15305328369140625, -0.15565049648284912, 0.4909968665138862, 1759352057733533931
-0.3238729238510132, 0.17281830310821533, 0.48344169383039204, 1759352057765730661
0.11677122116088867, 0.3302932381629944, 0.5700708426840443, 1759352057792915428
-0.18918001651763916, 0.32317352294921875, 0.4933130244231356, 1759352057822752152
-0.10152167081832886, 0.0450708270072937, 0.5067132236839417, 1759352057852832180
0.29201436042785645, -0.025901734828948975, 0.500810774484582, 1759352057882902905
-0.2594470977783203, 0.13939905166625977, 0.48750803648046215, 1759352057912986436
0.3539862632751465, 0.14628714323043823, 0.4843264476094156, 1759352057943057219
-0.4718472957611084, -0.060098886489868164, 0.4628329345109467, 1759352057973533978
0.2367541790008545, 0.06548744440078735, 0.46523830708262587, 1759352058005572532
-0.16200822591781616, -0.04309970140457153, 0.5413574811553529, 1759352058035212785
-0.10947650671005249, 0.3673466444015503, 0.5538668067406116, 1759352058063229486
0.013875603675842285, 0.36766690015792847, 0.5214908651043733, 1759352058093282265
0.09620553255081177, -0.3238583207130432, 0.5082940333619098, 1759352058123371298
0.11514800786972046, 0.1252555251121521, 0.49839871576332756, 1759352058153448012
0.11086982488632202, 0.35126399993896484, 0.5094221016984862, 1759352058183491917
-0.2787429094314575, -0.34694886207580566, 0.49700295915526504, 1759352058212839553
-0.0027703046798706055, 0.39235907793045044, 0.44177121721129925, 1759352058245634993
0.14697760343551636, 0.4004146456718445, 0.47607129296968276, 1759352058276583380
-0.5630768537521362, -0.544291615486145, 0.5626521292574514, 1759352058303787010
0.23414307832717896, 0.1948583722114563, 0.537379218668967, 1759352058333796181
-0.3694782257080078, 0.6159952878952026, 0.5273739890733932, 1759352058363868449
0.1193091869354248, -0.4537421464920044, 0.502377293281214, 1759352058393918956
0.105629563331604, -0.20231175422668457, 0.501010952090349, 1759352058424000776
0.16857969760894775, 0.6467638611793518, 0.5100357346874019, 1759352058454070445
-0.24263650178909302, -0.1340382695198059, 0.4939108343612438, 1759352058485351385
0.004162490367889404, -0.19184839725494385, 0.4734945687168303, 1759352058517309178
-0.2034032940864563, 0.35069459676742554, 0.5458846192709568, 1759352058544374294
-0.302048921585083, 0.4105970859527588, 0.48722871657866534, 1759352058574495742
-0.04987442493438721, -0.25313395261764526, 0.539982613266059, 1759352058604361773
-0.14566540718078613, 0.3174722194671631, 0.5417770372091265, 1759352058634423888
-0.04864704608917236, 0.06633645296096802, 0.49053589096088057, 1759352058664589729
0.3405616283416748, 0.06418699026107788, 0.4929239202537312, 1759352058693639934
0.16864055395126343, 0.1454816460609436, 0.4567951726090889, 1759352058725791786
-0.21855998039245605, -0.1134943962097168, 0.4755951169675186, 1759352058757291495
0.3758201003074646, 0.3683454990386963, 0.5661017152329969, 1759352058784854432
-0.44825708866119385, 0.10374343395233154, 0.5169768451700079, 1759352058814780923
0.651124894618988, -0.2233092188835144, 0.5186337660184362, 1759352058844887835
-0.006332457065582275, 0.4521270990371704, 0.5083461299636258, 1759352058874987109
0.26144784688949585, -0.030223965644836426, 0.515094077204923, 1759352058904143274
-0.1173088550567627, 0.12884849309921265, 0.49018366267534325, 1759352058935096211
0.14556312561035156, 0.43215781450271606, 0.46340904374833997, 1759352058965842866
-0.22783708572387695, -0.3286007046699524, 0.4561955044254198, 1759352058997382426
0.24878764152526855, 0.4344879388809204, 0.4820547172560091, 1759352059027395047
-0.5819180607795715, 0.21337461471557617, 0.5223565154246588, 1759352059055878389
-0.26313328742980957, -0.5706987977027893, 0.5190903887874665, 1759352059085891535
0.7781254649162292, 0.5763325691223145, 0.5185705570226372, 1759352059115956780
-0.09572446346282959, 0.3224642872810364, 0.5185767189415517, 1759352059145921010
-0.073089599609375, -0.5908302068710327, 0.5072164600005288, 1759352059175990457
0.06956744194030762, 0.25854891538619995, 0.5146008388677968, 1759352059205285340
0.21716660261154175, 0.561674952507019, 0.4594141817086234, 1759352059237854990
-0.21440041065216064, -0.3708340525627136, 0.47796354871746055, 1759352059268385324
0.3042961359024048, -0.08620578050613403, 0.5346614072120489, 1759352059295989117
-0.26127493381500244, 0.724059522151947, 0.5081977776781962, 1759352059325126899
-0.3836090564727783, 0.5826213359832764, 0.48837156970154016, 1759352059356456492
0.008652806282043457, -0.4945265054702759, 0.5300566744132171, 1759352059386287799
-0.19856798648834229, 0.0730554461479187, 0.5079497505019934, 1759352059416286329
0.4472525715827942, 0.5231050252914429, 0.5132531218100852, 1759352059446266539
-0.2208816409111023, -0.21116513013839722, 0.4817784126854792, 1759352059477540347
-0.25232887268066406, 0.09303802251815796, 0.46643760679401386, 1759352059509564179
0.17582780122756958, 0.3743172287940979, 0.5542360757520274, 1759352059536373700
-0.1256871223449707, 0.05882376432418823, 0.4840487326418466, 1759352059566352474
-0.43582695722579956, -0.0002320408821105957, 0.5057949089225294, 1759352059596397088
-0.22451335191726685, 0.06402641534805298, 0.5279631675970745, 1759352059626466942
0.07424342632293701, 0.1891409158706665, 0.5316575738426427, 1759352059656559978
-0.14495670795440674, 0.094562828540802, 0.5302212557935998, 1759352059685687589
-0.08843237161636353, -0.09487223625183105, 0.4716513813060564, 1759352059717380201
0.019388139247894287, 0.11929589509963989, 0.4583106227429524, 1759352059749772536
0.16301220655441284, 0.022237539291381836, 0.5602523498235725, 1759352059776884731
-0.32824259996414185, 0.3946133255958557, 0.5019913253079253, 1759352059806860610
0.1646357774734497, 0.3763996958732605, 0.47791705758346453, 1759352059836912512
-0.08507698774337769, -0.35315752029418945, 0.48667514239046133, 1759352059866970741
0.12560898065567017, 0.4064841866493225, 0.5072446631663282, 1759352059897072101
0.06044626235961914, 0.293853223323822, 0.5420766278853121, 1759352059927156928
-0.19900447130203247, -0.5553313493728638, 0.49875119277717705, 1759352059957332133
-0.01379305124282837, 0.48230642080307007, 0.44694564434973233, 1759352059989367683
0.19694912433624268, 0.4179690480232239, 0.49166778950097495, 1759352060019334949
-0.23940855264663696, -0.5936874747276306, 0.529461137388569, 1759352060047376634
0.13836431503295898, 0.21329337358474731, 0.4986408102350712, 1759352060077419592
-0.45248258113861084, 0.35486871004104614, 0.5076114991178018, 1759352060107455215
-0.018744230270385742, -0.18175756931304932, 0.5025524947786542, 1759352060137613086
-0.36808913946151733, -0.6567224264144897, 0.5100759946484942, 1759352060167651252
0.42640697956085205, 0.17823022603988647, 0.5360486266824946, 1759352060197774636
-0.2938234210014343, 0.7589787244796753, 0.5017773603151839, 1759352060229383569
-0.23752140998840332, -0.36523377895355225, 0.480128524096973, 1759352060260337548
-0.18575841188430786, -0.09280359745025635, 0.5162985712344964, 1759352060287927528
0.4075033664703369, 0.48585599660873413, 0.47979678743474696, 1759352060317946020
-0.31561094522476196, -0.08595973253250122, 0.502729899662707, 1759352060347989194
-0.3784818649291992, 0.19447720050811768, 0.5149490322765741, 1759352060378053819
-0.18808263540267944, 0.19613933563232422, 0.5194475586472139, 1759352060407126517
0.07488816976547241, -0.019533753395080566, 0.4844586971759841, 1759352060438234599
-0.2073734998703003, 0.15015608072280884, 0.47959016789278064, 1759352060469348087
0.0012226104736328125, -0.12110376358032227, 0.4787803582657681, 1759352060501383167
0.39112234115600586, 0.27601879835128784, 0.5651720151792999, 1759352060528454446
0.014018476009368896, 0.2831076979637146, 0.5017648013496095, 1759352060558414589
-0.1481184959411621, -0.22190344333648682, 0.49772567974466453, 1759352060588458059
-0.04260551929473877, 0.08932292461395264, 0.4943340443787816, 1759352060618536642
-0.24118667840957642, 0.034371256828308105, 0.5169998432677787, 1759352060648594046
-0.29668712615966797, 0.40394842624664307, 0.5240043495541504, 1759352060677720804
0.5564910173416138, 0.27294212579727173, 0.47442993561860763, 1759352060709191508
-0.36244434118270874, -0.40409553050994873, 0.46537427485998384, 1759352060741414845
-0.28139352798461914, 0.4750012159347534, 0.5338137170231483, 1759352060768958613
-0.11274957656860352, 0.40389859676361084, 0.5065890593358289, 1759352060798927761
-0.3333424925804138, -0.7331506013870239, 0.49488643351555034, 1759352060828996535
0.1518431305885315, 0.34667903184890747, 0.47771498163258097, 1759352060859043344
-0.2237377166748047, 0.4081827402114868, 0.5101364478935598, 1759352060888114324
-0.07425600290298462, -0.567781388759613, 0.47476655771813886, 1759352060919262738
0.003754258155822754, -0.5610108971595764, 0.5248905029758786, 1759352060949499470
0.19772911071777344, 0.5404120087623596, 0.5012561909303471, 1759352060981425501
-0.2446635365486145, 0.4356878995895386, 0.5372202679468187, 1759352061009419171
-0.16777724027633667, -0.7077945470809937, 0.5134780268016408, 1759352061039552179
-0.06638705730438232, 0.4206540584564209, 0.5070679358269603, 1759352061069649131
0.1628296971321106, -0.43591827154159546, 0.4622833933293274, 1759352061091584975
-0.2240174412727356, -0.37555956840515137, 0.5452947142193042, 1759352061129614515
-0.21494656801223755, 0.06457579135894775, 0.48528124233639935, 1759352061159725140
0.11735457181930542, 0.2966422438621521, 0.5114072000994834, 1759352061189777309
0.06792092323303223, -0.11166930198669434, 0.4839288355846526, 1759352061222057091
-0.117215096950531, 0.10931253433227539, 0.5094272567157241, 1759352061252616137
0.36004626750946045, 0.2169063687324524, 0.5625386508301686, 1759352061279955313
0.20127469301223755, 0.22210454940795898, 0.47150790437519036, 1759352061310039544
-0.2775294780731201, -0.01773393154144287, 0.49599812781131586, 1759352061340090857
0.2824123501777649, -0.03529369831085205, 0.515472786493358, 1759352061370291004
-0.3789885640144348, 0.2165195345878601, 0.508268476368737, 1759352061400478054
-0.13015615940093994, 0.19060921669006348, 0.5079183784138526, 1759352061430348414
-0.22790569067001343, -0.1165459156036377, 0.4781077833799297, 1759352061461446771
0.4832645654678345, 0.10820901393890381, 0.4864524228496622, 1759352061493841633
-0.3849107027053833, 0.048797011375427246, 0.6182563053207161, 1759352061520478136
0.09819579124450684, 0.329142689704895, 0.5076351649071463, 1759352061550553282
-0.09033674001693726, 0.3871864080429077, 0.46285477731477453, 1759352061580576838
-0.04701775312423706, -0.39807647466659546, 0.506097414979782, 1759352061610645281
0.058048129081726074, 0.18901681900024414, 0.5100408635740348, 1759352061640699828
-0.13719677925109863, 0.40482109785079956, 0.523710796941517, 1759352061669759993
0.03673756122589111, -0.5344182848930359, 0.46299444233245196, 1759352061701713513
0.019426167011260986, 0.3651096224784851, 0.45542775607064145, 1759352061733105363
0.21479082107543945, 0.24924272298812866, 0.529782698628443, 1759352061761179146
0.011458814144134521, 0.3203049898147583, 0.5219611659354593, 1759352061791032466
0.24789386987686157, -0.4333069920539856, 0.5218556702410317, 1759352061820106026
0.022379934787750244, 0.23361343145370483, 0.47946978133544244, 1759352061851147641
0.3106113076210022, 0.5726336240768433, 0.4911339736254301, 1759352061881179590
-0.2898330092430115, -0.5352321863174438, 0.47977540338789104, 1759352061911593152
0.39395493268966675, 0.2563619017601013, 0.48846569457656863, 1759352061941778773
-0.5897001624107361, 0.6516494750976562, 0.502604887569676, 1759352061973579079
0.4304109215736389, -0.48629260063171387, 0.5809608373920289, 1759352062001538453
-0.2292124629020691, 0.13231956958770752, 0.5201507318030105, 1759352062031527508
0.544806957244873, 0.5196029543876648, 0.5036707361807556, 1759352062061565314
0.24095869064331055, -0.22160589694976807, 0.46347179508327513, 1759352062083638737
-0.19973266124725342, 0.3406226634979248, 0.5634648328841604, 1759352062111815937
0.08796429634094238, 0.20319873094558716, 0.49836518018671966, 1759352062141693096
0.13952404260635376, -0.19759905338287354, 0.4684185681836744, 1759352062171793672
-0.4641084671020508, 0.07754826545715332, 0.47757735597121226, 1759352062201821696
-0.16455519199371338, 0.18646472692489624, 0.4981332308269884, 1759352062231948766
0.2642388343811035, -0.02289903163909912, 0.5245245841534794, 1759352062262055286
-0.47671908140182495, 0.14899790287017822, 0.49276042703229006, 1759352062293625546
0.363595187664032, 0.13959836959838867, 0.47227307555317105, 1759352062325568243
-0.23376166820526123, 0.08470791578292847, 0.5332317993817373, 1759352062352291113
0.05139803886413574, -0.011847853660583496, 0.4997666286288397, 1759352062382234179
0.12379753589630127, -0.07825052738189697, 0.4471014664216873, 1759352062405696082
-0.37778377532958984, 0.1842101812362671, 0.5589554358181928, 1759352062432438426
0.03362852334976196, 0.32150977849960327, 0.48965598015213596, 1759352062462375270
-0.247239351272583, -0.33702337741851807, 0.48958209982215495, 1759352062492514796
0.10379081964492798, -0.12301141023635864, 0.5007071875633466, 1759352062522642314
0.15945106744766235, 0.047132670879364014, 0.5452768869351994, 1759352062552712413
-0.16390180587768555, 0.9725346565246582, 0.536694427148988, 1759352062582698809
-0.23398929834365845, -0.27999091148376465, 0.4741253743325873, 1759352062613933720
0.49225670099258423, -0.5242246389389038, 0.4572128357215138, 1759352062645850758
-0.15980815887451172, 0.8351169228553772, 0.5431055373707805, 1759352062672905108
-0.4605304002761841, -0.44812750816345215, 0.4889153368696003, 1759352062702870370
-0.01760941743850708, -0.3746985197067261, 0.46811402886266246, 1759352062733012063
0.016800403594970703, 0.9618346691131592, 0.5006903252509709, 1759352062763076888
-0.2922258973121643, -0.3715136647224426, 0.5460694745147029, 1759352062792140228
-0.4698496460914612, -0.6625800728797913, 0.5096016423152301, 1759352062823201874
0.6334424614906311, 0.9631832838058472, 0.5359979856506301, 1759352062853724425
-0.061515092849731445, 0.12326622009277344, 0.4687331944724427, 1759352062886057484
-0.023509502410888672, -0.44145864248275757, 0.5322193204664899, 1759352062913383703
0.465135395526886, 0.27764058113098145, 0.5154624083297121, 1759352062943393766
-0.3783004879951477, 0.10860878229141235, 0.5092131295294938, 1759352062973513966
-0.3047671914100647, -0.12078946828842163, 0.4902874745438988, 1759352063003559650
0.1642622947692871, 0.1771230697631836, 0.47338795522809696, 1759352063033620291
-0.24326568841934204, 0.05300092697143555, 0.47974696296145547, 1759352063063702121
-0.18197357654571533, -0.0034221410751342773, 0.5191898788010753, 1759352063093767294
0.056323468685150146, -0.035561203956604004, 0.5132684555436376, 1759352063125644424
-0.22475767135620117, 0.34539204835891724, 0.4999127093289794, 1759352063156744453
-0.018949508666992188, -0.08906471729278564, 0.551778008044729, 1759352063183936912
-0.30448752641677856, -0.2666095495223999, 0.4881043400575104, 1759352063213962004
0.10353362560272217, 0.2937069535255432, 0.4973537077037261, 1759352063244007514
-0.08966082334518433, -0.003204941749572754, 0.5174330758426032, 1759352063273123453
-0.02091294527053833, 0.014608502388000488, 0.4693364724454481, 1759352063304233635
-0.19338124990463257, -0.09979879856109619, 0.48766978298203756, 1759352063334370983
-0.17668592929840088, 0.14832842350006104, 0.4972225707931699, 1759352063365709805
-0.4052026867866516, -0.12961405515670776, 0.49308967345591037, 1759352063397335160
0.6484325528144836, -0.10851144790649414, 0.5615305087263711, 1759352063424429824
-0.3531208634376526, 0.6052170395851135, 0.49243941277307546, 1759352063454437552
-0.04444587230682373, -0.3222477436065674, 0.47021877704721504, 1759352063484513566
-0.16135919094085693, -0.34778255224227905, 0.4836987512647855, 1759352063514689562
0.16888129711151123, 0.9725584983825684, 0.5157934291354145, 1759352063544649206
-0.5440680384635925, -0.4409037232398987, 0.5193075456208585, 1759352063574780452
0.3539225459098816, -0.4869309663772583, 0.4976565189344169, 1759352063606252567
0.35215938091278076, 0.9979757070541382, 0.47125647750964417, 1759352063637607942
-0.5117508172988892, -0.2583233118057251, 0.5474417112124635, 1759352063664949076
0.4283609986305237, -0.395715594291687, 0.5153999195930372, 1759352063694972519
-0.12234705686569214, 0.8299790024757385, 0.5250852590707725, 1759352063725094990
-0.2936546206474304, -0.013169348239898682, 0.49028496534779853, 1759352063755093035
-0.25419342517852783, -0.1916947364807129, 0.46680307074078453, 1759352063785221162
0.8706924915313721, 0.1905573010444641, 0.4944842881315714, 1759352063815254949
-0.44617223739624023, 0.06420934200286865, 0.5218493238474601, 1759352063846373249
-0.06431549787521362, -0.20472395420074463, 0.5271228299515542, 1759352063877596229
-0.13065987825393677, 0.18291723728179932, 0.5410844156800323, 1759352063905447688
-0.12161213159561157, 0.1276702880859375, 0.4710223688021065, 1759352063936076808
-0.176214337348938, -0.04313993453979492, 0.5220646350373198, 1759352063965135584
0.09528189897537231, -0.09751540422439575, 0.49538651148342117, 1759352063996150867
0.33775508403778076, 0.327786922454834, 0.49666552004589437, 1759352064026234427
-0.11236459016799927, 0.059156715869903564, 0.49272355372377585, 1759352064056251303
-0.06266611814498901, -0.020701706409454346, 0.4775523217476496, 1759352064086343015
-0.1697900891304016, -0.09372067451477051, 0.49524730474358614, 1759352064117902511
0.20813816785812378, 0.10481691360473633, 0.5363904882779982, 1759352064147902471
-0.1610892415046692, 0.09283959865570068, 0.5130974640083952, 1759352064176198612
0.5058104395866394, -0.15122365951538086, 0.49458436324604554, 1759352064206279708
-0.20068544149398804, 0.05086517333984375, 0.5056515028269506, 1759352064236279603
-0.06261926889419556, -0.31852638721466064, 0.49374701185331205, 1759352064266406738
0.30965447425842285, 0.12444466352462769, 0.5017522704133466, 1759352064296367271
-0.1838964819908142, 0.7739161849021912, 0.47845199118895965, 1759352064326540025
-0.2101818323135376, -0.5902085900306702, 0.47565385999457777, 1759352064357122227
0.39395827054977417, -0.19564270973205566, 0.46422122471960975, 1759352064389806995
0.06295132637023926, 1.0414272546768188, 0.6024675791788234, 1759352064416519141
-0.3220111131668091, -0.3990987539291382, 0.5387571598968529, 1759352064446521933
0.2064761519432068, -0.6089593172073364, 0.4989562286141476, 1759352064476576027
-0.08432108163833618, 0.7226483225822449, 0.4881044182824546, 1759352064506640395
-0.34605342149734497, -0.3032233715057373, 0.4920096372567413, 1759352064536728434
-0.25066375732421875, -0.5603077411651611, 0.4886265429673546, 1759352064566809798
0.39889729022979736, 0.9325855374336243, 0.5114681500676986, 1759352064597595970
-0.32264286279678345, 0.0017464160919189453, 0.46490594203270097, 1759352064629898091
0.12781155109405518, -0.5607016086578369, 0.5521433793011358, 1759352064657009519
0.07717043161392212, 0.32120251655578613, 0.5349161751601913, 1759352064687057022
0.38400065898895264, 0.1599116325378418, 0.5171867892552897, 1759352064717084666
-0.19103068113327026, -0.014413714408874512, 0.4760379904280177, 1759352064747153101
0.4133622646331787, 0.04069298505783081, 0.49451697375455184, 1759352064777206009
0.21324044466018677, 0.08782356977462769, 0.5088649130921765, 1759352064807314402
-0.26651471853256226, 0.19099116325378418, 0.49193095248777163, 1759352064837798712
0.10045367479324341, -0.12382781505584717, 0.4764209836374079, 1759352064870081462
-0.3929636478424072, 0.07196545600891113, 0.5678111369076284, 1759352064897562215
0.24661993980407715, 0.019156813621520996, 0.4986544904382021, 1759352064927688902
0.09588676691055298, -0.03710198402404785, 0.5058729503458473, 1759352064957569664
0.1664290428161621, 0.2109254002571106, 0.46209433194238775, 1759352064979772860
-0.3326534032821655, -0.02375507354736328, 0.5445831174754049, 1759352065007692678
0.319050133228302, -0.01065891981124878, 0.4902070344599257, 1759352065037750128
0.19545882940292358, 0.30448752641677856, 0.41834780484729284, 1759352065059818506
-0.06549006700515747, -0.2225673794746399, 0.4890104142297807, 1759352065097874587
-0.0957263708114624, 0.011368632316589355, 0.4882232695486999, 1759352065128023238
0.08651763200759888, 0.3900824189186096, 0.5057035558017541, 1759352065158046165
-0.026381313800811768, -0.12798303365707397, 0.498852201449613, 1759352065190298445
-0.0796583890914917, -0.196361243724823, 0.4974544314321978, 1759352065221421345
0.42736220359802246, 0.3085768222808838, 0.5504437508593226, 1759352065248274391
-0.31316351890563965, -0.07435262203216553, 0.5190002720874397, 1759352065278237585
-0.48378700017929077, -0.43013185262680054, 0.5017071631134788, 1759352065308341620
-0.07658427953720093, 0.5025818943977356, 0.49743424312298085, 1759352065338434625
0.20060724020004272, 0.6598532199859619, 0.4966654927770352, 1759352065368496058
-0.4663081765174866, -0.6343112587928772, 0.4954274973125623, 1759352065398572878
0.15210425853729248, 0.13981568813323975, 0.4947383623943717, 1759352065429950844
-0.4840688705444336, 0.5329484939575195, 0.5240308896266691, 1759352065461620080
0.1618226170539856, -0.47192996740341187, 0.5732868040733478, 1759352065488765530
-0.358920156955719, 0.016008973121643066, 0.4670335931185148, 1759352065518785846
0.1659548282623291, 0.35686224699020386, 0.49029369032010206, 1759352065548805006
0.10770893096923828, -0.3581942915916443, 0.5231516249822034, 1759352065578907608
-0.5096055865287781, 0.24138998985290527, 0.5387825658116034, 1759352065607969166
0.18923300504684448, 0.4297006130218506, 0.48406778547303625, 1759352065639055858
-0.3320612907409668, -0.3322632908821106, 0.4584971055623298, 1759352065669668931
0.22900354862213135, -0.16798728704452515, 0.4797807555914589, 1759352065701126393
-0.169439435005188, 0.03080618381500244, 0.576856013577434, 1759352065729392934
0.42785465717315674, 0.40779560804367065, 0.5177219697722357, 1759352065759290054
-0.15099644660949707, -0.14334547519683838, 0.5134607785031575, 1759352065789316720
0.15911543369293213, -0.20991849899291992, 0.4950526616656592, 1759352065819435041
-0.1637815237045288, 0.3208892345428467, 0.49439707560272406, 1759352065849456236
0.15835964679718018, -0.05784326791763306, 0.5129591967914855, 1759352065879533732
-0.25712770223617554, 0.04968225955963135, 0.48618929961503266, 1759352065909961553
0.6015601754188538, 0.41603565216064453, 0.46352678386889146, 1759352065942369083
-0.2977921962738037, -0.3743457794189453, 0.5794451017804635, 1759352065969859833
-0.1972838044166565, -0.1939418911933899, 0.5223334281902149, 1759352065999770978
0.6401758193969727, 0.7040556073188782, 0.5144304129269279, 1759352066029828220
-0.343725323677063, -0.6660720109939575, 0.44235643664410434, 1759352066051968523
0.5627707242965698, -0.5331841111183167, 0.49359844520464063, 1759352066089937230
-0.09259665012359619, 0.5665269494056702, 0.5192850596452401, 1759352066118157089
-0.07162922620773315, 0.30503368377685547, 0.4808393708411585, 1759352066149175734
-0.17315614223480225, -0.5177607536315918, 0.46958752946886023, 1759352066181975077
0.12908542156219482, 0.5430377721786499, 0.4816354018465414, 1759352066212962844
-0.33720648288726807, 0.35827237367630005, 0.5556165347042918, 1759352066240336840
-0.0032516121864318848, -0.7455477118492126, 0.5355268954491746, 1759352066270340209
0.010494589805603027, 0.22947996854782104, 0.530335626744587, 1759352066300406424
0.24589616060256958, 0.6681244373321533, 0.517624588864307, 1759352066330447716
-0.061912715435028076, -0.6128756403923035, 0.5104973424401158, 1759352066360543309
-0.28072869777679443, -0.10600769519805908, 0.4950406173457584, 1759352066390599847
0.28256356716156006, 0.741515040397644, 0.46670927419608, 1759352066421966615
-0.4499990940093994, -0.32684993743896484, 0.47402457617337673, 1759352066453939063
-0.1729118824005127, -0.054203569889068604, 0.5608805372050131, 1759352066480924132
-0.0825079083442688, -0.027323544025421143, 0.4804532509579179, 1759352066511806221
0.4256362318992615, 0.1768990159034729, 0.4997077971970988, 1759352066541466196
-0.3003246784210205, 0.16251146793365479, 0.5099672727644112, 1759352066571347270
0.4285048246383667, -0.2010541558265686, 0.5034753013992633, 1759352066601416991
-0.1234898567199707, 0.1962537169456482, 0.5004955770082244, 1759352066631379868
0.20500975847244263, 0.11112648248672485, 0.4693933556806229, 1759352066662179953
-0.21209567785263062, -0.13317126035690308, 0.4510842675471326, 1759352066693984349
-0.3116166591644287, 0.2993319034576416, 0.5467932477499166, 1759352066721555549
-0.2818892002105713, -0.13581687211990356, 0.5322364847436802, 1759352066751528701
0.1762586236000061, 0.03184551000595093, 0.5311550208978689, 1759352066781627170
0.01255875825881958, 0.31636494398117065, 0.49692975952980106, 1759352066811842201
0.2091515064239502, -0.3164364695549011, 0.5178941745428104, 1759352066841744838
0.14860302209854126, -0.01016300916671753, 0.515131575706864, 1759352066871637238
-0.06258922815322876, 0.5159876346588135, 0.5013370470779859, 1759352066901756156
0.02834498882293701, -0.08461672067642212, 0.44932973789560343, 1759352066933926506
-0.25354671478271484, -0.21254348754882812, 0.49265690602138407, 1759352066961888157
0.3713276982307434, 0.3282368779182434, 0.46836877007436517, 1759352066991854920
-0.22759771347045898, 0.08631038665771484, 0.5203689970259764, 1759352067021896795
0.046466052532196045, -0.4817770719528198, 0.5274908384815081, 1759352067051981007
0.06080222129821777, 0.4801751971244812, 0.530429433067257, 1759352067081015593
-0.011464953422546387, 0.5894705653190613, 0.4713004676452978, 1759352067112097717
-0.17667973041534424, -0.5852819681167603, 0.4984593948661599, 1759352067142225682
0.060727477073669434, 0.21748512983322144, 0.48563823413682533, 1759352067174368028
-0.2715224623680115, 0.5307692289352417, 0.5164024226552125, 1759352067204996714
0.029334068298339844, -0.3760986328125, 0.5498413645584078, 1759352067232463602
0.17773520946502686, -0.06509906053543091, 0.48676161028788545, 1759352067262439923
-0.07022839784622192, 0.19528454542160034, 0.5202367078090816, 1759352067292526308
-0.19118732213974, 0.17966997623443604, 0.5411234894930453, 1759352067322614690
-0.22174203395843506, -0.10230708122253418, 0.5236802607968163, 1759352067352594096
0.17783957719802856, 0.1763477325439453, 0.4903086680343417, 1759352067382676178
-0.25644510984420776, -0.021688997745513916, 0.44765481056523554, 1759352067413840522
0.05495983362197876, 0.053031742572784424, 0.4620863596131032, 1759352067445774200
-0.45863860845565796, 0.010375440120697021, 0.5590582985026157, 1759352067472942053
-0.3389444947242737, -0.008763551712036133, 0.48892898869778756, 1759352067502925317
0.30283206701278687, 0.16493266820907593, 0.5122695989520308, 1759352067533009065
-0.3786054253578186, -0.039472341537475586, 0.5058380606293889, 1759352067563005021
0.0184175968170166, -0.027861177921295166, 0.5454124475550521, 1759352067591098130
0.19539874792099, 0.15976083278656006, 0.49811587557965287, 1759352067623173955
-0.1240009069442749, 0.15120989084243774, 0.47846698014541716, 1759352067654169137
0.1811215877532959, 0.08295464515686035, 0.4506146267445279, 1759352067686509636
0.0024192333221435547, -0.18004024028778076, 0.5694301491749472, 1759352067713424835
-0.4776776432991028, 0.02464956045150757, 0.4986272190888698, 1759352067743405229
0.4899798035621643, 0.7069847583770752, 0.5040507125164889, 1759352067773493694
-0.6751087307929993, -0.2982913851737976, 0.5050311429490233, 1759352067803524983
0.38972580432891846, -0.41382908821105957, 0.49392145382165464, 1759352067833582863
-0.18616002798080444, 0.6024410128593445, 0.5146973763998615, 1759352067863661464
-0.08660846948623657, 0.18082976341247559, 0.49437742308830723, 1759352067893950207
-0.0834154486656189, -0.42007917165756226, 0.455023652543794, 1759352067926065217
-0.2557442784309387, 0.3768364191055298, 0.4977301410639785, 1759352067955894161
-0.008491158485412598, 0.5378152132034302, 0.5407777314498172, 1759352067983929153
0.035319745540618896, -0.3940173387527466, 0.49606067154060096, 1759352068013999227
0.31044477224349976, 0.07029551267623901, 0.5069718349494619, 1759352068044031006
-0.47671061754226685, 0.36735111474990845, 0.5480868144371173, 1759352068073083209
-0.13010406494140625, 0.13257735967636108, 0.4796017765290039, 1759352068104466409
-0.3284327983856201, -0.24020522832870483, 0.4991478327445776, 1759352068134463944
0.08017033338546753, 0.08612757921218872, 0.4810924986954152, 1759352068165944129
-0.18176865577697754, -0.037916600704193115, 0.49377766025695036, 1759352068197286398
-0.2525874972343445, 0.011942028999328613, 0.5514463634238945, 1759352068224616536
-0.41554224491119385, -0.06941759586334229, 0.48138679258480754, 1759352068254481359
0.3497388958930969, 0.1267428994178772, 0.479528144044678, 1759352068284544812
-0.47090041637420654, 0.3186759948730469, 0.5043414629616677, 1759352068314583669
0.07937729358673096, -0.15691685676574707, 0.5314294285088341, 1759352068344627169
-0.07551318407058716, 0.20963436365127563, 0.5342251208713793, 1759352068374725109
-0.24277102947235107, 0.12901932001113892, 0.46540075602187214, 1759352068406350527
-0.366894006729126, -0.04224950075149536, 0.46407756213989265, 1759352068437126553
0.4273926019668579, 0.1494629979133606, 0.5373337142372759, 1759352068464976729
-0.34450310468673706, -0.028699517250061035, 0.5107665142143708, 1759352068494201600
-0.32763636112213135, 0.03496110439300537, 0.4616121085169021, 1759352068525428049
0.0911514163017273, 0.4343545436859131, 0.4871928006397218, 1759352068554127767
-0.5327017903327942, -0.3608474135398865, 0.502238934058432, 1759352068584561632
-0.07920229434967041, -0.12551391124725342, 0.5237359928224717, 1759352068615218465
-0.20081216096878052, 0.6832050085067749, 0.5210580409319278, 1759352068646372829
0.12755918502807617, -0.16833233833312988, 0.48176784846517207, 1759352068677798262
-0.19228976964950562, -0.4066386818885803, 0.5014720305151188, 1759352068705448736
0.2059118151664734, 0.49436408281326294, 0.4948309388746846, 1759352068735471780
-0.1289806365966797, 0.30625659227371216, 0.5124974412380541, 1759352068765543104
-0.3284727931022644, -0.6715362668037415, 0.49614298111096106, 1759352068795607829
-0.19525176286697388, 0.6760939955711365, 0.4774537478525101, 1759352068825714625
-0.2211177945137024, 0.4575471878051758, 0.47022407348753265, 1759352068856474714
-0.18505674600601196, -0.8155021071434021, 0.5259612300782057, 1759352068886457692
-0.03954964876174927, -0.6018840074539185, 0.5065790329236123, 1759352068917914037
-0.014692366123199463, 0.8654686212539673, 0.5329107422171994, 1759352068947814401
0.21905416250228882, -0.04525101184844971, 0.5342573354941241, 1759352068976470811
-0.32496047019958496, -0.26831120252609253, 0.4860518366780457, 1759352069006466012
0.07956212759017944, 0.3861698508262634, 0.4966562575248951, 1759352069036581218
0.41445988416671753, 0.27012020349502563, 0.5151429138780892, 1759352069066524946
-0.5564103722572327, 0.024730563163757324, 0.5140605364156101, 1759352069096591709
0.07536566257476807, 0.0903978943824768, 0.522226238951979, 1759352069126589657
-0.3303222060203552, 0.07913315296173096, 0.48198112828505363, 1759352069158318420
-0.4752020239830017, 0.09945851564407349, 0.49219913160263024, 1759352069189838424
-0.1550615429878235, -0.03922319412231445, 0.5939401553009805, 1759352069216725838
-0.06929075717926025, 0.1492798924446106, 0.5021665822689855, 1759352069246655977
-0.22117090225219727, 0.017140626907348633, 0.4816790519497288, 1759352069276792595
-0.3494003415107727, -0.1249997615814209, 0.48019724226780597, 1759352069306728372
-0.17721515893936157, 0.3239327073097229, 0.4879400283864665, 1759352069336792039
-0.039346516132354736, 0.1039963960647583, 0.5197360164601778, 1759352069366875390
-0.29268527030944824, -0.14640909433364868, 0.48077200897035666, 1759352069397820171
0.24355953931808472, 0.20884764194488525, 0.46795327366755696, 1759352069429883742
0.07664591073989868, -0.10938185453414917, 0.5824449717063375, 1759352069457030799
-0.23434966802597046, -0.026116907596588135, 0.5004237135585392, 1759352069487042021
0.22987550497055054, 0.5511988401412964, 0.5302761263128708, 1759352069516115299
-0.28531455993652344, -0.2881285548210144, 0.5024819612378933, 1759352069547168445
-0.5447611808776855, -0.2151145339012146, 0.46250111323212023, 1759352069577227583
-0.16624706983566284, 0.5168910026550293, 0.48373583143825094, 1759352069607288162
-0.0050511956214904785, 0.09522789716720581, 0.5037598287904199, 1759352069637853469
-0.4628499150276184, -0.37691402435302734, 0.47552667082200617, 1759352069670683414
-0.1471933126449585, 0.4243089556694031, 0.5764225067819609, 1759352069697601880
0.3538045883178711, 0.7626091837882996, 0.5034954695521195, 1759352069727645627
-0.13765323162078857, 0.002302825450897217, 0.49965523812011026, 1759352069757649057
0.1999804973602295, -0.4782780408859253, 0.5061815421178368, 1759352069787663979
0.05204629898071289, 0.808789074420929, 0.5065414898176961, 1759352069817744729
-0.17634159326553345, 0.27163827419281006, 0.46957939877237626, 1759352069847777126
-0.14323168992996216, -0.21993809938430786, 0.4658861213558122, 1759352069877885191
0.3006616234779358, 0.08310937881469727, 0.4581417924916952, 1759352069910009866
-0.2792230248451233, -0.05429571866989136, 0.5497103119668372, 1759352069940036708
0.2906064987182617, 0.050883948802948, 0.5853739656617022, 1759352069968041716
-0.05425238609313965, 0.04784733057022095, 0.5228726175525683, 1759352069997109130
0.5907047986984253, 0.07394391298294067, 0.46570396194994246, 1759352070028164388
-0.13259661197662354, 0.19488555192947388, 0.4933740200869053, 1759352070058236890
0.07274812459945679, -0.1208353042602539, 0.5052050992343776, 1759352070088279534
0.03786599636077881, 0.22694987058639526, 0.48989857569696144, 1759352070119046858
0.12100714445114136, 0.20507711172103882, 0.4584170908406343, 1759352070149916330
-0.05508542060852051, -0.12444514036178589, 0.459073523067922, 1759352070181832305
0.20046395063400269, 0.22915101051330566, 0.5956291094970558, 1759352070208557139
-0.2702471613883972, 0.08216607570648193, 0.5294994113291907, 1759352070238613599
-0.06804972887039185, 0.09325557947158813, 0.4840528175251468, 1759352070268664407
0.22456413507461548, 0.22980910539627075, 0.4722175960237795, 1759352070298758659
-0.39887136220932007, -0.35296303033828735, 0.5083669732267907, 1759352070328813213
-0.0016711950302124023, -0.011214256286621094, 0.502757893133945, 1759352070358886839
-0.10744690895080566, 0.8062161207199097, 0.4939243943499012, 1759352070389931318
-0.09033811092376709, -0.07077842950820923, 0.4653294024986369, 1759352070421921566
-0.1644553542137146, -0.4874691963195801, 0.5573404844892142, 1759352070448111347
0.6800642013549805, 0.6286357045173645, 0.5089003440505588, 1759352070479158806
0.05452913045883179, 1.150364637374878, 0.5224286247240782, 1759352070509322071
-0.12951719760894775, -0.3237628936767578, 0.5186873542468776, 1759352070538276136
-0.14105087518692017, -0.5548171401023865, 0.4833539231146843, 1759352070569333038
-0.12899404764175415, 0.9840613007545471, 0.4810016735351082, 1759352070599586023
-0.16938096284866333, 0.03266572952270508, 0.4899500213642463, 1759352070630541555
-0.3273509740829468, -0.7037403583526611, 0.49141007823793303, 1759352070662090603
-0.09622222185134888, 0.7237151861190796, 0.5760773466297426, 1759352070689562660
0.19977295398712158, 0.07032507658004761, 0.5210709686591509, 1759352070719661587
0.09964853525161743, -0.45601701736450195, 0.49658271933329107, 1759352070749668001
0.2819511294364929, 0.33880650997161865, 0.5052107353296957, 1759352070779836421
0.2866353988647461, 0.12459081411361694, 0.5230203855524999, 1759352070809801652
-0.22983843088150024, -0.09246045351028442, 0.5031626348707171, 1759352070839893118
0.320149302482605, 0.2804085612297058, 0.49437132226119007, 1759352070869944016
-0.09898853302001953, 0.04707103967666626, 0.44893614375544577, 1759352070902238776
0.1906818151473999, 0.08410173654556274, 0.5500103592969963, 1759352070929188114
-0.10455155372619629, 0.0901908278465271, 0.5172041276584728, 1759352070959161849
-0.21570390462875366, 0.22368580102920532, 0.4924845670752458, 1759352070990281441
-0.0006232261657714844, -0.004034936428070068, 0.4594142874447424, 1759352071012897955
-0.22889554500579834, 0.1392732858657837, 0.5734846758744975, 1759352071040317201
0.19819319248199463, 0.07243597507476807, 0.502392132206456, 1759352071070352259
-0.2252976894378662, 0.06191694736480713, 0.498405471038095, 1759352071100430931
-0.2676011919975281, 0.14882290363311768, 0.5129784776578038, 1759352071130484824
-0.032901108264923096, 0.28745925426483154, 0.4850475759190307, 1759352071160514894
-0.058101534843444824, -0.23259896039962769, 0.4823276078274271, 1759352071190583333
-0.14950984716415405, 0.0032201409339904785, 0.4817130881715455, 1759352071222036834
-0.14334982633590698, 0.4437037706375122, 0.4766999367034959, 1759352071254088206
-0.30992674827575684, -0.5116864442825317, 0.5673858089374448, 1759352071280829956
0.228976309299469, -0.2674415111541748, 0.4714715529776028, 1759352071311922686
-0.03765136003494263, 0.3068903088569641, 0.49801737244959643, 1759352071341467159
0.23614561557769775, -0.01294863224029541, 0.507399040834586, 1759352071371180994
-0.3041383624076843, -0.06707680225372314, 0.4984677960147231, 1759352071401018581
-0.14131015539169312, 0.40476858615875244, 0.5187564073840305, 1759352071430102380
0.13198786973953247, 0.4621274471282959, 0.4686298062469196, 1759352071462633990
-0.46227383613586426, -0.6187838912010193, 0.4946763321337065, 1759352071493112730
0.9858741760253906, 0.15080666542053223, 0.5635424312851702, 1759352071521350109
-0.2597343325614929, 0.8118492960929871, 0.5215613824120457, 1759352071551370658
0.13268160820007324, -0.5390356779098511, 0.4780210987693959, 1759352071581389692
-0.15127402544021606, -0.18039709329605103, 0.484051998452839, 1759352071611521927
0.11340862512588501, 0.7135537266731262, 0.4942727243383966, 1759352071641526048
-0.00827932357788086, -0.13237464427947998, 0.49194130276621245, 1759352071671617371
0.02323925495147705, 0.013364315032958984, 0.48651354781092365, 1759352071702497305
-0.1759575605392456, 0.45295584201812744, 0.4529205708712195, 1759352071734275987
0.3092835545539856, -0.06454819440841675, 0.5378487875332552, 1759352071761869396
-0.5255063772201538, 0.056246399879455566, 0.5238391609994839, 1759352071791841614
0.08134782314300537, 0.08139151334762573, 0.526324357562761, 1759352071821925027
0.02258598804473877, 0.013669312000274658, 0.5083866793462032, 1759352071851989446
-0.12314659357070923, 0.11603760719299316, 0.47418399564463876, 1759352071882039259
0.20630162954330444, -0.011801600456237793, 0.5064878161336577, 1759352071911152704
-0.11011683940887451, 0.1521916389465332, 0.48713714841053396, 1759352071942188527
0.30623823404312134, -0.005142390727996826, 0.4748697901658215, 1759352071974599473
-0.08665680885314941, 0.263397753238678, 0.5027134480284703, 1759352072003856516
0.031404316425323486, 0.26946479082107544, 0.496871577564584, 1759352072032435738
-0.13575541973114014, -0.267183780670166, 0.520119314744719, 1759352072062396116
0.6027344465255737, 0.2924882769584656, 0.5166172745129487, 1759352072092569405
0.03462088108062744, 0.6049608588218689, 0.5113277322288446, 1759352072122689594
-0.5004980564117432, -0.1695818305015564, 0.4958349225329282, 1759352072152632699
-0.21184659004211426, -0.3578415513038635, 0.46797408624041953, 1759352072182674188
0.3271486163139343, 0.6392738223075867, 0.4513945798737095, 1759352072214414354
-0.37055063247680664, 0.13794052600860596, 0.46890067862358076, 1759352072245475198
0.3621114492416382, -0.5435765385627747, 0.5529134026032451, 1759352072272907053
0.2458745241165161, 0.7144668102264404, 0.5214155004197357, 1759352072302893616
0.09854817390441895, 0.5159807205200195, 0.5080272009575321, 1759352072333022598
-0.04563295841217041, -0.6228898167610168, 0.5127134164027184, 1759352072363018636
-0.04480326175689697, 0.24122732877731323, 0.517737639420273, 1759352072393147145
0.1300014853477478, 0.6542451977729797, 0.5105480977027248, 1759352072423187918
-0.030152559280395508, -0.41726887226104736, 0.4784321390600442, 1759352072454157032
-0.026700913906097412, -0.08461034297943115, 0.4566088243744369, 1759352072486785400
-0.21766936779022217, 0.5437770485877991, 0.5821738557441984, 1759352072512452731
-0.18702298402786255, -0.12275463342666626, 0.4843432282757809, 1759352072543359707
-0.14798754453659058, 0.09174591302871704, 0.4911500980773624, 1759352072573514098
-0.02266526222229004, 0.22774970531463623, 0.48848213214657715, 1759352072603546874
0.1831672191619873, 0.12370502948760986, 0.4851722373034491, 1759352072633652451
0.1438862681388855, 0.1101841926574707, 0.49333068670945107, 1759352072663716479
0.3860512971878052, -0.1839069128036499, 0.48958048943292565, 1759352072694499138
-0.05934041738510132, 0.014952600002288818, 0.493831518912533, 1759352072726206890
0.17038965225219727, 0.3043292760848999, 0.5358652858092011, 1759352072753971915
-0.13296020030975342, -0.15838879346847534, 0.4776125349284868, 1759352072783919382
0.451559841632843, 0.09454745054244995, 0.4890540834931206, 1759352072814006085
-0.09388983249664307, 0.1119074821472168, 0.5177667473516477, 1759352072844052211
0.30593031644821167, 0.03899109363555908, 0.5190978588876731, 1759352072874172251
-0.1389128565788269, 0.21561145782470703, 0.4892540418925079, 1759352072904342928
0.12570232152938843, -0.1864137053489685, 0.48131201331757273, 1759352072934702338
0.11207437515258789, 0.13365113735198975, 0.484691097088299, 1759352072965102151
-0.04317086935043335, 0.5416857600212097, 0.4672721297447823, 1759352072995849209
-0.291831374168396, -0.06930297613143921, 0.49738681595644546, 1759352073024464554
-0.3721614480018616, -0.1940772533416748, 0.47399614797716894, 1759352073054447329
-0.15581464767456055, 0.3472862243652344, 0.5029648821802746, 1759352073084525962
-0.05431240797042847, 0.33255261182785034, 0.5352270458425246, 1759352073114606001
-0.10946863889694214, -0.37388861179351807, 0.529791691345682, 1759352073144664186
-0.0789441466331482, 0.39531654119491577, 0.4865015918275632, 1759352073174765352
0.03730541467666626, 0.6239139437675476, 0.46295219889924893, 1759352073206522106
-0.055154263973236084, -0.44173598289489746, 0.477990414206135, 1759352073238095044
0.16340625286102295, -0.029705405235290527, 0.5410462609701262, 1759352073264914963
-0.7806466221809387, 0.5489301085472107, 0.46950165213552547, 1759352073294947384
-0.04561084508895874, -0.06262588500976562, 0.4049930151033818, 1759352073318573847
-0.1296117901802063, 0.23176229000091553, 0.5953752146168343, 1759352073344109862
-0.09543007612228394, 0.06817924976348877, 0.5181622891085158, 1759352073374142668
0.15856671333312988, -0.2264135479927063, 0.5117515910007968, 1759352073405205476
0.06966376304626465, 0.3337748050689697, 0.49012629871602553, 1759352073435291616
0.5823251605033875, 0.09452146291732788, 0.4803184877198926, 1759352073465347692
-0.09804385900497437, -0.06586003303527832, 0.48969042977144517, 1759352073495468080
0.24360722303390503, -0.10371750593185425, 0.5104746148743979, 1759352073525345832
0.13314288854599, 0.24247974157333374, 0.47842858614254874, 1759352073558418535
0.11505597829818726, 0.18894845247268677, 0.548560290648544, 1759352073585600320
0.022022008895874023, -0.028557240962982178, 0.5076707971964266, 1759352073615686303
0.29946887493133545, 0.08357888460159302, 0.5211559357131217, 1759352073645882466
-0.17776000499725342, 0.45382237434387207, 0.5007915933185575, 1759352073675828746
0.3083531856536865, -0.08316582441329956, 0.5308359762289697, 1759352073705978706
0.014976978302001953, 0.25107085704803467, 0.5066487598203011, 1759352073735924016
-0.10642588138580322, 0.17934495210647583, 0.46580404746582177, 1759352073766699509
0.18290871381759644, -0.015679478645324707, 0.5011783860328325, 1759352073797163823
0.03297388553619385, 0.23972952365875244, 0.4965984377195081, 1759352073828070475
-0.44556868076324463, 0.249811589717865, 0.5540848929598907, 1759352073856762830
0.06505125761032104, -0.4065300226211548, 0.539936244477228, 1759352073886756293
0.2120416760444641, 0.5655561685562134, 0.48169771803125516, 1759352073908371793
-0.04757416248321533, 0.5059080719947815, 0.531036765714396, 1759352073946767666
0.010730266571044922, -0.43621718883514404, 0.5154364940684578, 1759352073976803148
0.08666473627090454, 0.11690115928649902, 0.4989010402210455, 1759352074006845711
-0.021928787231445312, 0.41082727909088135, 0.4868478647143661, 1759352074038461044
-0.6736371517181396, -0.5869333744049072, 0.469545826949729, 1759352074069289077
0.1723085641860962, 0.04722404479980469, 0.5240532537332249, 1759352074097016634
0.06825309991836548, 0.6759784817695618, 0.5288447346633111, 1759352074126928315
-0.272006630897522, -0.40632957220077515, 0.5268790149238879, 1759352074156948860
0.257790207862854, -0.029775619506835938, 0.5373759018545805, 1759352074187008930
0.46054959297180176, 0.32208120822906494, 0.5062276192663162, 1759352074217056005
-0.22152769565582275, 0.047498345375061035, 0.4954302166521668, 1759352074246122558
-0.011099040508270264, -0.18067139387130737, 0.4752239147761926, 1759352074278558350
0.11679071187973022, 0.08378124237060547, 0.4980011679771593, 1759352074310256984
-0.245577871799469, 0.2595420479774475, 0.5483302105068403, 1759352074337231347
0.17328745126724243, 0.08701533079147339, 0.4790511879963328, 1759352074367219739
-0.16567909717559814, -0.12330907583236694, 0.4952876928553546, 1759352074397260768
0.0889081358909607, 0.2805577516555786, 0.5041387615102683, 1759352074427359287
-0.3277410864830017, -0.10623818635940552, 0.5207427649920384, 1759352074457424314
-0.02960669994354248, 0.2395196557044983, 0.5062619613558003, 1759352074487538875
-0.19447064399719238, -0.13166409730911255, 0.4744939434490371, 1759352074518743139
0.339164137840271, 0.009034991264343262, 0.4800383519576412, 1759352074550328805
-0.10151845216751099, 0.20687228441238403, 0.5582928359973898, 1759352074577663490
-0.3843543529510498, 0.14811617136001587, 0.4986799277002572, 1759352074607712234
-0.15149223804473877, 0.27585601806640625, 0.4775912584238463, 1759352074637748943
0.1781194806098938, -0.2824781537055969, 0.5011926561982569, 1759352074667851062
-0.10203683376312256, 0.03126406669616699, 0.5400033114083128, 1759352074697892895
0.005918622016906738, 0.3714548349380493, 0.5236631259705523, 1759352074728017335
-0.271354079246521, -0.4831237196922302, 0.49770836171544985, 1759352074758189187
0.23184698820114136, 0.3228759765625, 0.4604848049310134, 1759352074790592900
-0.2878073453903198, 0.6036924123764038, 0.503340246060567, 1759352074820311142
0.3637527823448181, -0.00725102424621582, 0.5449967587224915, 1759352074858184866
-0.42819857597351074, -0.41431283950805664, 0.5033358324403877, 1759352074888286638
0.21293675899505615, 0.48487865924835205, 0.5117035957457627, 1759352074918590697
0.02393108606338501, 0.5620463490486145, 0.4832187335302626, 1759352074950261119
-0.44141870737075806, -0.6337129473686218, 0.5138263705328138, 1759352074980308310
0.3822525143623352, -0.018748342990875244, 0.5604276124327497, 1759352075008540920
-0.1917470097541809, 0.5966027975082397, 0.5028170411136789, 1759352075038545003
0.35290658473968506, -0.3887476921081543, 0.47133443314681245, 1759352075068663887
-0.3467811346054077, -0.15663057565689087, 0.4873067139026761, 1759352075098706892
0.3213425278663635, 0.5914509296417236, 0.49982347543857203, 1759352075128794454
-0.1509302258491516, -0.12299859523773193, 0.5210659641521342, 1759352075158893738
-0.08476358652114868, -0.08665323257446289, 0.4839257893864125, 1759352075190290694
-0.07987892627716064, 0.4696112275123596, 0.4567207666599588, 1759352075222480755
0.5123910307884216, -0.08900749683380127, 0.5612464093111883, 1759352075249084715
-0.3764820694923401, -0.07771414518356323, 0.5138838396286494, 1759352075279153119
0.03363192081451416, -0.058275580406188965, 0.5286952169732912, 1759352075309187094
-0.12869632244110107, 0.0706070065498352, 0.5098779863892682, 1759352075339213821
0.3185165524482727, 0.08173799514770508, 0.4906980425867776, 1759352075369284857
0.23112142086029053, 0.02178293466567993, 0.4855749773279261, 1759352075399366544
-0.4502320885658264, 0.09841698408126831, 0.4654749901532092, 1759352075430633565
0.29067617654800415, -0.07789087295532227, 0.5035453822531848, 1759352075462289050
-0.37751466035842896, 0.03833276033401489, 0.5730630599572897, 1759352075489667444
0.5585293173789978, 0.388266921043396, 0.47996516265183725, 1759352075519630945
-0.20038503408432007, -0.3108018636703491, 0.49414470046274805, 1759352075549656826
0.2759143114089966, -0.1875309944152832, 0.49163320918482506, 1759352075579700801
-0.015591859817504883, 0.7123922109603882, 0.500394708223908, 1759352075609776380
-0.31080305576324463, -0.09147858619689941, 0.4799284333446042, 1759352075639888204
-0.07176166772842407, -0.41011500358581543, 0.46087207321182494, 1759352075670331601
0.3154173493385315, 0.6348291635513306, 0.4699065555894422, 1759352075702197493
-0.3690032958984375, -0.06961369514465332, 0.5813295330817564, 1759352075729194216
0.18923801183700562, -0.6580729484558105, 0.5467833429687402, 1759352075759175258
0.5648987889289856, 0.7320089936256409, 0.521260200463328, 1759352075790223714
-0.01277858018875122, 0.44379568099975586, 0.5038189221662063, 1759352075820305516
0.2069271206855774, -0.7625841498374939, 0.501326608246678, 1759352075850293128
0.08247971534729004, 0.10309946537017822, 0.523828340970846, 1759352075880357894
0.047041356563568115, 0.8021451830863953, 0.5107334543755594, 1759352075910450110
0.02248692512512207, -0.4132976531982422, 0.44113277111070914, 1759352075942872101
0.07960665225982666, -0.36089205741882324, 0.48681024121322136, 1759352075972592889
0.015220999717712402, 0.2902299761772156, 0.5234742102491308, 1759352076010661638
-0.03968620300292969, 0.15722131729125977, 0.5237202237626928, 1759352076040720344
-0.03231996297836304, -0.04658830165863037, 0.49989469492948246, 1759352076071095781
0.24464315176010132, -0.0841292142868042, 0.4681717989016674, 1759352076102245697
-0.10576218366622925, -0.20680081844329834, 0.47860953703088555, 1759352076132808643
-0.1508004069328308, 0.32611238956451416, 0.526965489673108, 1759352076160993105
-0.2015957236289978, 0.06166726350784302, 0.49642357419982214, 1759352076191041647
0.10623681545257568, 0.19295734167099, 0.4282930939193908, 1759352076214428756
-0.12999534606933594, 0.1937953233718872, 0.5532921873693586, 1759352076241800920
-0.21149462461471558, -0.19365525245666504, 0.516684536539717, 1759352076271785635
0.08587944507598877, 0.22433006763458252, 0.5195031194114355, 1759352076301874936
-0.1792953610420227, 0.08374613523483276, 0.5096582669879621, 1759352076331865825
0.12958252429962158, -0.19390225410461426, 0.4941876062528766, 1759352076361948406
-0.1329176425933838, 0.1916908621788025, 0.47980318315443654, 1759352076391904095
-0.17363733053207397, -0.10682404041290283, 0.47843203916753535, 1759352076422272284
0.135306715965271, -0.0780264139175415, 0.4487382081315975, 1759352076454975983
-0.19171273708343506, 0.573192298412323, 0.5366798523576426, 1759352076481683935
-0.33491647243499756, -0.2096121907234192, 0.48430373990701947, 1759352076511954481
0.2881779670715332, -0.30330491065979004, 0.5029677330221521, 1759352076541749370
0.002466440200805664, 0.6559218168258667, 0.5140484116523301, 1759352076571798174
0.25672125816345215, 0.1040998101234436, 0.5087028452995073, 1759352076601837606
0.10578709840774536, -0.5456743240356445, 0.48735812474953566, 1759352076631942382
-0.10476547479629517, 0.5900131464004517, 0.46931605344367977, 1759352076662306460
-0.07981634140014648, 0.5100781321525574, 0.43927269912523603, 1759352076694510346
-0.24337232112884521, -0.5378008484840393, 0.551222140682125, 1759352076722170737
0.32747334241867065, 0.04440438747406006, 0.5174383821341212, 1759352076752202368
-0.7629928588867188, 0.3848596215248108, 0.5263655050887178, 1759352076782242246
0.2515332102775574, -0.5329574346542358, 0.5338425438217624, 1759352076812309000
0.0365067720413208, -0.03694218397140503, 0.4985837442293968, 1759352076842346367
0.125238299369812, 0.31773704290390015, 0.48799480201452333, 1759352076872780706
-0.14432185888290405, 0.14454299211502075, 0.5118705802209682, 1759352076901691872
-0.4760162830352783, 0.07261693477630615, 0.42037297690867637, 1759352076934525405
-0.12563949823379517, 0.07321321964263916, 0.5299397857053447, 1759352076961636356
0.15043306350708008, 0.009766995906829834, 0.4732801216181425, 1759352076992744600
-0.3378068804740906, 0.0719488263130188, 0.5207536699991524, 1759352077022750688
-0.11904585361480713, -0.029619038105010986, 0.5264587830183032, 1759352077052825673
-0.3321545720100403, 0.27553021907806396, 0.5156258447324317, 1759352077082866437
0.424747109413147, -0.012672603130340576, 0.5246003160330264, 1759352077112948802
-0.17130649089813232, -0.1841753125190735, 0.49674847981618664, 1759352077143008642
0.2087157964706421, -0.03269684314727783, 0.4597075812943108, 1759352077175062018
0.18048334121704102, 0.08716827630996704, 0.48973288662338016, 1759352077206456414
-0.31600165367126465, -0.024875342845916748, 0.5416146724387715, 1759352077233247108
0.33348143100738525, 0.2889379858970642, 0.4712014101533462, 1759352077263270332
-0.28156429529190063, -0.2957369089126587, 0.4988197136860252, 1759352077293332905
-0.4800693988800049, -0.19961267709732056, 0.5130462988376622, 1759352077323394648
-0.08362293243408203, 0.7909548282623291, 0.5372598971791108, 1759352077353436101
-0.007536113262176514, -0.08489590883255005, 0.5344364079649234, 1759352077383513732
-0.25939029455184937, -0.5416312217712402, 0.47591384695998346, 1759352077414978717
0.1783595085144043, 0.4160540699958801, 0.4635719643613561, 1759352077446474530
-0.26533347368240356, 0.10014265775680542, 0.5618806051862347, 1759352077473779215
-0.07772934436798096, -0.3344188928604126, 0.5079248212813297, 1759352077503766925
-0.11747437715530396, 0.5755914449691772, 0.4234663450975019, 1759352077527697666
-0.34384870529174805, -0.721278727054596, 0.5599301262330602, 1759352077554661066
0.05161583423614502, -0.004287660121917725, 0.5228171157506959, 1759352077583915683
-0.10757023096084595, 0.6317793130874634, 0.5261020696240338, 1759352077614002768
-0.1461564302444458, -0.27065885066986084, 0.5168866210020024, 1759352077644025376
-0.026548683643341064, -0.042101144790649414, 0.48500071547515977, 1759352077674152361
-0.5355932712554932, -0.4197975993156433, 0.4859846208696505, 1759352077704244612
-0.09457802772521973, 0.4640340805053711, 0.47795753458076523, 1759352077735481464
-0.14543098211288452, -0.0694473385810852, 0.4836426696363826, 1759352077766509343
-0.3637245297431946, -0.06124597787857056, 0.49728332903732964, 1759352077797629707
0.027332186698913574, -0.13232803344726562, 0.5446655709973167, 1759352077834430768
0.005565643310546875, -0.14257729053497314, 0.5083955732585551, 1759352077864506114
0.44794005155563354, 0.2747069001197815, 0.523124430933728, 1759352077894526966
-0.3233775496482849, 0.012944698333740234, 0.4868089786321849, 1759352077926121515
0.4938013553619385, 0.131353497505188, 0.4936645502497611, 1759352077957213738
-0.30019664764404297, 0.11385369300842285, 0.5242690596676643, 1759352077984808559
-0.05412358045578003, -0.18251723051071167, 0.48236808322731106, 1759352078014162302
-0.042937397956848145, 0.23746377229690552, 0.4713865095376941, 1759352078044878731
-0.5013266801834106, -0.07225322723388672, 0.5047422312517695, 1759352078074958961
0.13553917407989502, -0.19546014070510864, 0.5181982461887997, 1759352078105039204
-0.10568201541900635, 0.3214624524116516, 0.5151970528605352, 1759352078135460813
0.2792508006095886, -0.21303731203079224, 0.5151270532376977, 1759352078166487467
-0.17632246017456055, -0.18620920181274414, 0.47552426819895355, 1759352078198383226
0.46744632720947266, 0.5120438933372498, 0.5537807975381097, 1759352078225259842
-0.36265432834625244, -0.06716537475585938, 0.501140536764592, 1759352078255299581
0.16781795024871826, -0.46044230461120605, 0.4682765016823352, 1759352078285420500
0.10710698366165161, 0.5675843954086304, 0.4987781672248653, 1759352078315443128
0.06116950511932373, 0.21910911798477173, 0.4966743230542061, 1759352078345537323
-0.12939387559890747, -0.7341700196266174, 0.5191644799579681, 1759352078375569239
0.10293066501617432, 0.7281909584999084, 0.5148287660694367, 1759352078406793955
0.1886499524116516, 0.5755699872970581, 0.47690147526621424, 1759352078438773372
-0.37797224521636963, -0.863335907459259, 0.5701509045543675, 1759352078465806390
0.27008193731307983, -0.6621491312980652, 0.5131992327056619, 1759352078495973661
-0.3589869737625122, 1.0614711046218872, 0.5119444795222542, 1759352078525922400
0.31913870573043823, 0.2729344367980957, 0.4989548336150829, 1759352078555934409
-0.6746194362640381, -0.5425692796707153, 0.48514785045649644, 1759352078586012353
0.8093505501747131, 0.21764272451400757, 0.497967835648813, 1759352078616081330
-0.17508381605148315, -0.02759242057800293, 0.5499003353657177, 1759352078646505989
0.10581737756729126, -0.32393473386764526, 0.5035155373044221, 1759352078678424083
-0.027251899242401123, 0.3951590061187744, 0.5346328466168512, 1759352078706222981
0.1913781762123108, 0.10746270418167114, 0.48330385803624987, 1759352078736940851
-0.18279767036437988, -0.08919858932495117, 0.5049167001501588, 1759352078766905469
0.1045798659324646, 0.10193866491317749, 0.5082027173608918, 1759352078796991037
-0.3052062392234802, 0.25880932807922363, 0.4965362941973157, 1759352078826977008
0.05257827043533325, -0.04276466369628906, 0.4859570392885356, 1759352078857059081
0.3361789584159851, -0.23919415473937988, 0.49227448295443155, 1759352078887281104
-0.31860417127609253, 0.12931746244430542, 0.48997333294838824, 1759352078918434230
0.2579590678215027, 0.10828900337219238, 0.5269363282341892, 1759352078948600451
-0.1157461404800415, -0.19154047966003418, 0.5339210675937073, 1759352078977164149
0.41272515058517456, 0.4137784242630005, 0.4714651972195333, 1759352079007097472
-0.4076060652732849, -0.29292595386505127, 0.5094448410362573, 1759352079037157127
0.27706587314605713, -0.3175531029701233, 0.5184194355583605, 1759352079067189839
-0.07685232162475586, 0.9672220349311829, 0.5010705101007542, 1759352079097246114
-0.268490195274353, -0.021126210689544678, 0.48790720380854274, 1759352079127291532
-0.26020288467407227, -0.6481640338897705, 0.45519693042402276, 1759352079158437131
0.2929621934890747, 0.6453017592430115, 0.4559194827838619, 1759352079191006590
-0.19618701934814453, 0.08139562606811523, 0.6143240183579763, 1759352079217369241
-0.035160064697265625, -0.5503413677215576, 0.5217985055152878, 1759352079247375987
0.38668370246887207, 0.38753271102905273, 0.4997411065620752, 1759352079277490290
0.4595407247543335, 0.7537897825241089, 0.488041389028072, 1759352079307614381
-0.3318948745727539, 0.18305498361587524, 0.482184921514019, 1759352079337608603
-0.0871918797492981, -0.7306467294692993, 0.492857103705432, 1759352079367692056
-0.12965434789657593, 0.7697274088859558, 0.49047359849786537, 1759352079398942675
-0.14062607288360596, 0.1215938925743103, 0.49454723623810426, 1759352079430432644
-0.06650978326797485, -0.41938841342926025, 0.5724999180636241, 1759352079457833710
-0.17663192749023438, 0.13317930698394775, 0.5022658695381501, 1759352079487850728
0.005101501941680908, 0.07095885276794434, 0.5069821446939978, 1759352079517945921
0.01616114377975464, 0.07160264253616333, 0.5080815840830204, 1759352079547987110
-0.38180577754974365, 0.15910470485687256, 0.49811187213411434, 1759352079578070870
0.09137541055679321, -0.1362883448600769, 0.48721620277594013, 1759352079608422189
0.08214229345321655, 0.2779885530471802, 0.4977539856843123, 1759352079638753372
-0.25712937116622925, -0.03342032432556152, 0.48764083116248536, 1759352079670488127
0.09442138671875, -0.03805917501449585, 0.5680300543510631, 1759352079698345679
-0.10716569423675537, 0.16396409273147583, 0.4986816614261686, 1759352079728343149
-0.21020346879959106, -0.03652298450469971, 0.49956240087312503, 1759352079758426847
0.21349811553955078, -0.05236494541168213, 0.4461001197443864, 1759352079780605713
-0.038481175899505615, 0.024337708950042725, 0.5364553802609928, 1759352079808522996
0.27954596281051636, 0.17753809690475464, 0.5170711448529748, 1759352079838583413
-0.296877920627594, 0.2539498805999756, 0.4860562542951616, 1759352079868645979
0.329708993434906, -0.23643511533737183, 0.4946829009956893, 1759352079898723715
-0.07209879159927368, 0.2403489351272583, 0.5167845858787745, 1759352079927823099
-0.19879299402236938, 0.33301830291748047, 0.5065024922699235, 1759352079958843435
-0.10910135507583618, -0.57753986120224, 0.5038627799481941, 1759352079990424922
-0.06055581569671631, 0.2904750108718872, 0.460041817782692, 1759352080022278415
0.17733705043792725, 0.5392330884933472, 0.549197703886299, 1759352080049077385
-0.24153441190719604, -0.6324385404586792, 0.5134520974256944, 1759352080079176474
0.005532562732696533, -0.34902411699295044, 0.49556409051683775, 1759352080109350708
-0.09556049108505249, 0.5656552314758301, 0.5172273730719223, 1759352080139253805
0.06156128644943237, 0.501505434513092, 0.48748414648617594, 1759352080169310138
-0.2272404432296753, -0.623367428779602, 0.5013750320763924, 1759352080199358075
0.3963804841041565, -0.0007312297821044922, 0.5070025347154361, 1759352080231058627
-0.901299238204956, 0.5717059969902039, 0.4915341364724619, 1759352080262566746
0.3884131908416748, -0.3419307470321655, 0.5586806300972406, 1759352080289564168
-0.18749284744262695, -0.10765069723129272, 0.49383199661355015, 1759352080319625426
-0.09136903285980225, 0.32936203479766846, 0.4906451629671428, 1759352080349667457
-0.1936260461807251, -0.15587514638900757, 0.526653426883069, 1759352080379751610
-0.09739702939987183, 0.13820356130599976, 0.5294239922908178, 1759352080409856080
0.1358831524848938, 0.3162314295768738, 0.4953507522726691, 1759352080439857598
-0.0768204927444458, -0.21547842025756836, 0.46322758601116143, 1759352080470627160
0.002565443515777588, -0.027304351329803467, 0.46973997069482953, 1759352080502733339
-0.22565007209777832, 0.11271357536315918, 0.569545014769068, 1759352080540071808
0.01574045419692993, 0.020973265171051025, 0.5056939023888636, 1759352080570201103
-0.03198695182800293, 0.13731276988983154, 0.4668578102199372, 1759352080600264772
-0.07133370637893677, -0.18988460302352905, 0.49279380309974347, 1759352080630523067
-0.41639113426208496, 0.046607911586761475, 0.4820811327161006, 1759352080662516851
-0.10319823026657104, 0.2317342758178711, 0.533239600106672, 1759352080690429539
0.219723641872406, -0.19550102949142456, 0.4863170255500812, 1759352080720465253
-0.1498321294784546, 0.3229798674583435, 0.4853301343168122, 1759352080750494567
-0.1401159167289734, -0.10685741901397705, 0.5135550062879913, 1759352080780619103
0.12943315505981445, -0.29543536901474, 0.5171703469412777, 1759352080810648006
-0.2181077003479004, 0.9168199300765991, 0.5032900003937077, 1759352080840733526
-0.004638552665710449, -0.2048054337501526, 0.49478329110198616, 1759352080871177236
-0.5917002558708191, -0.1933475136756897, 0.4411054182629266, 1759352080902503251
-0.2643865942955017, -0.4506635069847107, 0.4683761137065078, 1759352080933040235
0.0577048659324646, 0.18535995483398438, 0.5498953596581979, 1759352080970925331
0.038299381732940674, 0.8009449243545532, 0.5236719281781892, 1759352081000987268
-0.218325674533844, -0.5843555331230164, 0.5311382963700302, 1759352081030125377
0.32713133096694946, -0.05740886926651001, 0.4601079348048015, 1759352081062949521
-0.22195672988891602, 0.6683095693588257, 0.4862762678443675, 1759352081094555314
-0.2962679862976074, -0.3599984645843506, 0.58213039808875, 1759352081121288722
0.04404735565185547, -0.2143532633781433, 0.5173823867916525, 1759352081151158737
-0.15753519535064697, 0.3922632336616516, 0.45987439417390746, 1759352081182027412
0.16429376602172852, 0.06387525796890259, 0.4665148443744831, 1759352081212097791
-0.23603075742721558, -0.11948531866073608, 0.4877564239383677, 1759352081242029795
0.4125925302505493, -0.0010491013526916504, 0.5367218650918638, 1759352081271628856
-0.26834046840667725, 0.2801715135574341, 0.5062751241130344, 1759352081302525344
0.40660470724105835, -0.04244035482406616, 0.45846719123842894, 1759352081334965139
-0.1421489715576172, -0.13442391157150269, 0.5521661945753329, 1759352081361130056
0.6167163848876953, 0.33684444427490234, 0.49735937320907636, 1759352081390905223
-0.09519964456558228, -0.031042158603668213, 0.49707433668924067, 1759352081421890617
-0.09202313423156738, 0.24096834659576416, 0.4955615765964051, 1759352081451978773
-0.14218223094940186, 0.28952473402023315, 0.49417228009212366, 1759352081481983318
-0.24127817153930664, -0.16989636421203613, 0.4980941720522569, 1759352081511102550
0.1688947081565857, -0.04562520980834961, 0.4776804831337636, 1759352081542900278
-0.4634029269218445, 0.32069307565689087, 0.49578131578542634, 1759352081575234920
0.48937755823135376, 0.06420445442199707, 0.5446360569652102, 1759352081602338361
0.09395813941955566, 0.02388817071914673, 0.5036808479749627, 1759352081632387836
0.3920906186103821, 0.05107903480529785, 0.5121557327392616, 1759352081662457595
-0.5322386026382446, 0.447715699672699, 0.49724137512965877, 1759352081692555303
0.04555833339691162, -0.37877756357192993, 0.4950326929826654, 1759352081722523604
-0.21775919198989868, 0.36540454626083374, 0.47419039824496184, 1759352081752595847
0.28741455078125, 0.4550759196281433, 0.4944651735954124, 1759352081782662692
-0.4442339539527893, -0.7270426750183105, 0.4988812813901495, 1759352081814959490
-0.38880443572998047, 0.22610479593276978, 0.523311477000309, 1759352081844721481
-0.012470901012420654, 0.7671126127243042, 0.5594483439902082, 1759352081872898716
-0.3382940888404846, -0.58100426197052, 0.5291558135651714, 1759352081901883027
0.2404358983039856, -0.166556715965271, 0.47496404815095045, 1759352081933015209
0.15193188190460205, 0.8052045106887817, 0.5192960113391397, 1759352081963020915
-0.15198642015457153, -0.30573737621307373, 0.5226089893797058, 1759352081992115625
-0.1586073637008667, -0.1386791467666626, 0.4866155125549468, 1759352082023149125
0.3298419117927551, 0.4493287205696106, 0.49027079674135254, 1759352082054799378
-0.49365532398223877, -0.10066646337509155, 0.4751884796879877, 1759352082086828769
0.07018548250198364, -0.10581034421920776, 0.5955638480156147, 1759352082113414357
-0.07882624864578247, 0.29857075214385986, 0.5298142840090176, 1759352082143399576
0.11784160137176514, 0.18573719263076782, 0.4696131885462993, 1759352082173502644
-0.3223416209220886, -0.06397444009780884, 0.47313491477559894, 1759352082203609016
0.10608619451522827, -0.055049359798431396, 0.5085488053051331, 1759352082233620587
-0.14319878816604614, 0.4332835078239441, 0.5100278405572668, 1759352082263640451
-0.07538223266601562, 0.09226149320602417, 0.481721305178166, 1759352082294825225
-0.16463321447372437, -0.08860558271408081, 0.45809666257539555, 1759352082326898537
0.12832576036453247, 0.27927887439727783, 0.5479555634415155, 1759352082353885146
0.33309268951416016, 0.035371482372283936, 0.5214398206522417, 1759352082383882227
0.048009395599365234, 0.18686729669570923, 0.5234862501093699, 1759352082414006171
0.16222822666168213, 0.2371160387992859, 0.508663774365989, 1759352082444030480
-0.19045758247375488, 0.08130919933319092, 0.4853682198297544, 1759352082474585120
-0.07264924049377441, 0.11013174057006836, 0.4886073453844424, 1759352082504243667
0.120181143283844, 0.1349601149559021, 0.46722408221038875, 1759352082536221186
-0.38051557540893555, 0.3236021399497986, 0.518397738120542, 1759352082566723276
-0.4528723359107971, -0.6666387915611267, 0.5855832739355298, 1759352082594391074
0.40351158380508423, 0.1416614055633545, 0.503539917033594, 1759352082624603959
0.0372961163520813, 0.7416887879371643, 0.4746590127878635, 1759352082654444867
-0.19871217012405396, -0.5822710990905762, 0.5069755625856588, 1759352082684551392
0.25783634185791016, 0.05688077211380005, 0.517880556282844, 1759352082714598790
0.12636065483093262, 0.8360095024108887, 0.512035216163397, 1759352082744656010
-0.42715126276016235, -0.42144936323165894, 0.4904213021250852, 1759352082775208845
0.30403977632522583, -0.017487168312072754, 0.4613918257248114, 1759352082806764157
0.0932321548461914, 0.7959081530570984, 0.5095012716932699, 1759352082836104355
-0.6060972213745117, -0.4674484133720398, 0.5366307820598497, 1759352082864952451
0.17617791891098022, -0.1358489990234375, 0.5225245420227023, 1759352082894948092
0.09230989217758179, 0.4744858741760254, 0.4443307567403722, 1759352082917898488
-0.07953077554702759, -0.46770960092544556, 0.5629162061630524, 1759352082944141261
0.18643438816070557, 0.1672830581665039, 0.4949484406389887, 1759352082974137962
0.13763093948364258, 0.2568897008895874, 0.500566377407539, 1759352083005182528
-0.41097158193588257, -0.02108520269393921, 0.49019210728223905, 1759352083035210166
-0.04717439413070679, 0.19127023220062256, 0.4810134966906958, 1759352083065287738
0.04855227470397949, -0.0003167390823364258, 0.4776307735205389, 1759352083095377401
-0.1651012897491455, 0.10763806104660034, 0.4769771907555834, 1759352083126694542
0.22944939136505127, 0.041683733463287354, 0.49603105190180063, 1759352083158561170
-0.4313904643058777, 0.15873706340789795, 0.565654369261466, 1759352083185646640
0.44351738691329956, 0.11488497257232666, 0.4745551679601345, 1759352083215649525
-0.09729665517807007, -0.0754820704460144, 0.4677624130324746, 1759352083245772528
0.1661604642868042, 0.11691939830780029, 0.4716428770475144, 1759352083275912424
-0.25395381450653076, 0.4072904586791992, 0.5057211616262395, 1759352083305792059
0.1645485758781433, 0.02032548189163208, 0.47902585515021484, 1759352083335879385
-0.27576422691345215, -0.03894466161727905, 0.4805101277542868, 1759352083367188536
-0.23551779985427856, 0.17338556051254272, 0.497321747971807, 1759352083399376382
-0.2867727279663086, -0.03731858730316162, 0.6001905155752255, 1759352083426441953
0.2211574912071228, -0.010268747806549072, 0.5426489249572684, 1759352083456308409
0.1538028120994568, 0.6184616684913635, 0.5082837329623255, 1759352083486238584
0.1568460464477539, -0.2585015892982483, 0.47126645823362134, 1759352083516361589
0.15558123588562012, -0.2642635703086853, 0.495628060205326, 1759352083546332878
-0.16610991954803467, 0.8872149586677551, 0.4905791017712978, 1759352083576372067
-0.019758522510528564, -0.11323177814483643, 0.4721282684372403, 1759352083607435445
-0.2214464545249939, -0.47831445932388306, 0.45865879487327244, 1759352083638969709
0.3606632351875305, 0.8053748607635498, 0.5252633769437585, 1759352083666663654
-0.44126468896865845, 0.09882515668869019, 0.5148549436203086, 1759352083697168818
0.4984060525894165, -0.8954156041145325, 0.5227913706979297, 1759352083727295584
-0.4416748881340027, 0.7883898615837097, 0.4989651253197307, 1759352083757276744
-0.011629998683929443, 0.4678816795349121, 0.48503805806064776, 1759352083787324761
-0.1106683611869812, -0.23098993301391602, 0.4907014111048596, 1759352083817277271
0.2957632541656494, 0.13939428329467773, 0.48214576680818616, 1759352083847470448
-0.21954506635665894, 0.04169297218322754, 0.47732665207168873, 1759352083879087242
0.39911949634552, 0.2864808440208435, 0.48541624849855164, 1759352083909841172
-0.23859459161758423, 0.09288305044174194, 0.5338376539350935, 1759352083937356411
0.1485612988471985, -0.3800959587097168, 0.518025212687324, 1759352083967461931
0.3791622519493103, 0.5898417234420776, 0.5345408811094133, 1759352083997462431
-0.33999961614608765, 0.07953077554702759, 0.4957114682543186, 1759352084027629988
0.05802696943283081, 0.23450642824172974, 0.4986704179973492, 1759352084057859128
-0.10771673917770386, 0.3713834285736084, 0.504116094910308, 1759352084087703086
0.07034558057785034, -0.22404766082763672, 0.48024558670217954, 1759352084118927263
-0.3939293622970581, 0.08448326587677002, 0.47524555333462304, 1759352084150853376
0.10183322429656982, 0.24839121103286743, 0.5654495159102011, 1759352084177674575
-0.06233423948287964, -0.12215769290924072, 0.5136596859574959, 1759352084207730240
0.12555480003356934, 0.1398000717163086, 0.48702256193777116, 1759352084237764560
0.17546194791793823, 0.20387041568756104, 0.5138668694780075, 1759352084267890960
-0.4114786386489868, -0.02678447961807251, 0.5294537302602819, 1759352084297887888
-0.20277541875839233, 0.19959068298339844, 0.5072895296093768, 1759352084327965631
0.15029728412628174, 0.616082489490509, 0.4962352405797942, 1759352084357719139
-0.33947640657424927, -0.16995859146118164, 0.4299617438532242, 1759352084391382237
-0.2072567343711853, -0.4726663827896118, 0.5361252860944119, 1759352084418150545
0.01883840560913086, 0.6713628768920898, 0.5394812086874502, 1759352084448239254
-0.4543856978416443, -0.02749776840209961, 0.5607589403008556, 1759352084478263695
0.2349858283996582, -0.6992038488388062, 0.517999186482, 1759352084508415922
0.0027860403060913086, 0.6480646729469299, 0.48538586101723447, 1759352084538376237
-0.07831752300262451, 0.2928735017776489, 0.4864529915716284, 1759352084568473430
0.22549808025360107, -0.5919498801231384, 0.49360627827077874, 1759352084598936653
-0.33416247367858887, 0.6983347535133362, 0.47879881280928066, 1759352084630701408
0.28487932682037354, 0.6011419296264648, 0.5333080893327413, 1759352084658648567
-0.2620376944541931, -0.4378047585487366, 0.4831708392255473, 1759352084688792144
0.15089446306228638, 0.18079251050949097, 0.514002327013956, 1759352084718766205
-0.14795219898223877, 0.22576290369033813, 0.5620237583983312, 1759352084748835613
-0.04810166358947754, -0.03792679309844971, 0.5105111420294027, 1759352084778879564
-0.12960070371627808, 0.20703309774398804, 0.49024602822610436, 1759352084808970976
0.20732450485229492, -0.03920269012451172, 0.4827740746077462, 1759352084839160668
0.12112963199615479, 0.21786868572235107, 0.4753932764927495, 1759352084870747247
-0.1984958052635193, 0.11910808086395264, 0.5136714418450796, 1759352084901633905
-0.042214810848236084, 0.1673240065574646, 0.555458966237442, 1759352084929207107
0.19587337970733643, 0.2133299708366394, 0.49241187030954053, 1759352084959281782
-0.3375277519226074, -0.21941077709197998, 0.5011061473746394, 1759352084989326112
0.29736512899398804, 0.15936219692230225, 0.5139677751353048, 1759352085019408688
-0.2030971646308899, 0.43204498291015625, 0.5244250924045922, 1759352085049470907
-0.25140804052352905, -0.07721781730651855, 0.48691359112943006, 1759352085079549168
-0.15577208995819092, 0.04395073652267456, 0.46127077206338946, 1759352085110689131
0.2553282380104065, 0.2485675811767578, 0.4748805162239087, 1759352085142736328
-0.637168288230896, -0.06837600469589233, 0.5625884551413887, 1759352085169762205
0.2513476014137268, -0.10107254981994629, 0.5055117109173994, 1759352085199797401
-0.2056899070739746, 0.4810272455215454, 0.5070304914498298, 1759352085229855543
-0.042067885398864746, -0.06250619888305664, 0.5033039118398542, 1759352085259904461
-0.3000947833061218, -0.17685002088546753, 0.5316666582348649, 1759352085289977644
0.509000837802887, 0.4961298704147339, 0.5281835650205527, 1759352085320033205
0.023178160190582275, 0.07876461744308472, 0.4948664707822625, 1759352085350408257
-0.1758301854133606, -0.5042935013771057, 0.468862223460209, 1759352085382761524
0.3812054991722107, 0.4778394103050232, 0.5450137001620258, 1759352085410284444
-0.21253591775894165, 0.43974030017852783, 0.4909996610849829, 1759352085440304948
-0.4882190227508545, -0.5206565260887146, 0.49387174724047445, 1759352085470347386
-0.2707798480987549, 0.45758873224258423, 0.5105355061601757, 1759352085500410203
0.4374431371688843, 0.4089896082878113, 0.49585377161372773, 1759352085530478512
-0.5407660603523254, -0.3274679183959961, 0.5039614557398254, 1759352085560521837
0.38486772775650024, 0.14501094818115234, 0.49786946895252215, 1759352085591041795
-0.39593786001205444, 0.2126041054725647, 0.48017870401459967, 1759352085622768017
0.4071109890937805, 0.19065570831298828, 0.5304824521943586, 1759352085650844503
-0.11490499973297119, 0.37488049268722534, 0.4831682169692519, 1759352085680722246
0.23160415887832642, -0.10665911436080933, 0.47394020838295375, 1759352085710844727
-0.14791059494018555, 0.0687403678894043, 0.4997195743843475, 1759352085740896403
-0.10164570808410645, 0.1391715407371521, 0.5217830669980593, 1759352085770945182
0.058904945850372314, 0.08733713626861572, 0.5239995449340331, 1759352085800996869
-0.10522693395614624, 0.20822298526763916, 0.5393983218656567, 1759352085829123784
0.23976528644561768, -0.2189542055130005, 0.434207142093593, 1759352085863331077
-0.137481689453125, 0.029187560081481934, 0.5020481762754939, 1759352085893455885
0.2555220127105713, 0.44964373111724854, 0.5272749881872589, 1759352085921621705
-0.13331466913223267, -0.22385543584823608, 0.48895276348468913, 1759352085951299143
0.16383004188537598, 0.11130982637405396, 0.4585189002555518, 1759352085981386847
-0.0431862473487854, 0.31404048204421997, 0.49154007162697494, 1759352086011515342
-0.2563243508338928, -0.36847710609436035, 0.5298282748662247, 1759352086041541738
0.10283774137496948, 0.183721125125885, 0.5287658260467365, 1759352086071607369
0.6884472370147705, 0.768546462059021, 0.4808033927966265, 1759352086102816022
-0.2373775839805603, -0.3262253403663635, 0.4471960442067674, 1759352086135000901
-0.05029875040054321, -0.22408819198608398, 0.5874802847296491, 1759352086161762284
0.47045814990997314, 0.7530295252799988, 0.5312933111239349, 1759352086191782335
-0.14987915754318237, -0.512706458568573, 0.42957968723433065, 1759352086215051745
-0.08233219385147095, 0.5661861896514893, 0.5701390486676923, 1759352086241970098
-0.3594328761100769, 0.43033260107040405, 0.49542584955287977, 1759352086272001586
-0.15409666299819946, -0.14939916133880615, 0.44556906071251823, 1759352086294114500
0.007605612277984619, 0.17645126581192017, 0.6071713534007914, 1759352086330105168
-0.3585326075553894, 0.5864096283912659, 0.4999870115788161, 1759352086362188045
0.09324181079864502, -0.3603999614715576, 0.48987147666871034, 1759352086392235196
-0.3330329656600952, -0.24614465236663818, 0.49057733982712515, 1759352086422130397
0.05357140302658081, 0.14748334884643555, 0.44208961011385567, 1759352086455278973
0.2596803903579712, 0.3009580373764038, 0.5614423089526583, 1759352086482512721
0.04436600208282471, 0.05472457408905029, 0.4890221875905776, 1759352086512774814
-0.38095712661743164, 0.1203453540802002, 0.5013194115710784, 1759352086542560108
0.5210812091827393, -0.07821828126907349, 0.5187102452909556, 1759352086572651433
-0.2983928918838501, 0.1442609429359436, 0.5113998367999227, 1759352086602997263
-0.24601006507873535, 0.10479015111923218, 0.5248339988628193, 1759352086632947544
-0.16919171810150146, -0.045770466327667236, 0.5103506918855484, 1759352086663089339
0.498897910118103, 0.06279820203781128, 0.4458460078898582, 1759352086695692102
-0.20059800148010254, 0.09099429845809937, 0.5110523768133785, 1759352086725287198
-0.2687823176383972, 0.031242191791534424, 0.5490441231451171, 1759352086753162830
0.006423234939575195, 0.11326199769973755, 0.5132750422102638, 1759352086783055262
0.25217658281326294, -0.19071084260940552, 0.5173403716851335, 1759352086812173079
-0.3362414240837097, 0.13839298486709595, 0.47680418745802955, 1759352086843209684
0.2136172652244568, 0.015105605125427246, 0.5207872391705346, 1759352086873264672
0.4444735646247864, -0.28646349906921387, 0.5086960557346693, 1759352086903345590
-0.3233075737953186, 0.6769322752952576, 0.49198136939710857, 1759352086934129562
-0.03688037395477295, 0.1092911958694458, 0.46652784391494484, 1759352086966726947
-0.10246986150741577, -0.708560049533844, 0.5353666421525901, 1759352086993592958
-0.10825324058532715, 0.6792984008789062, 0.4791070377200979, 1759352087023556044
-0.07934057712554932, 0.2596471905708313, 0.5046303652843268, 1759352087053642239
0.08073997497558594, -0.6736804246902466, 0.5050603683050292, 1759352087083684274
-0.3310500979423523, 0.5686140656471252, 0.5116355046905907, 1759352087113765857
-0.01610475778579712, 0.3665282130241394, 0.5166255053177119, 1759352087143820316
-0.11029332876205444, -0.568641722202301, 0.48655679373016186, 1759352087175083627
0.40489882230758667, 0.0393519401550293, 0.4663220008992062, 1759352087207379008
-0.2536463737487793, 0.34885168075561523, 0.583311406619953, 1759352087234093211
0.4501139521598816, 0.5652865171432495, 0.4893685827037639, 1759352087264179678
-0.4097220301628113, -0.43998652696609497, 0.49412496580263865, 1759352087293125523
0.1236124038696289, 0.13149160146713257, 0.4739471707465619, 1759352087324181454
-0.23897451162338257, 0.10385805368423462, 0.5115780481209451, 1759352087354235875
-0.08536398410797119, -0.13155585527420044, 0.5211173119037206, 1759352087384558988
0.3361855149269104, 0.17604756355285645, 0.4836567736488649, 1759352087415153104
0.15848076343536377, -0.11736834049224854, 0.44915484046957, 1759352087447203393
0.3872174620628357, 0.09436172246932983, 0.5599128659232449, 1759352087474509358
-0.1405838131904602, 0.18705755472183228, 0.49026378178477614, 1759352087504597188
0.0014244914054870605, -0.025084853172302246, 0.47341964554275584, 1759352087534604185
0.06300240755081177, 0.30964231491088867, 0.46505532934937627, 1759352087564705205
0.008724987506866455, -0.0547490119934082, 0.4865424420102914, 1759352087594725629
-0.22355306148529053, 0.00544363260269165, 0.5348733030583307, 1759352087624856966
0.1970403790473938, 0.18089568614959717, 0.5373723700885922, 1759352087655524867
-0.05358731746673584, -0.2022600769996643, 0.4853082173463201, 1759352087687007280
-0.28661322593688965, 0.18221724033355713, 0.476055624328698, 1759352087716817148
0.2738949656486511, 0.09301060438156128, 0.5109131000072483, 1759352087745187277
-0.34025341272354126, -0.2851336598396301, 0.48678313846769666, 1759352087775095522
0.3627113103866577, 0.41397911310195923, 0.4861324728875515, 1759352087804255058
-0.2726406455039978, -0.00430607795715332, 0.45977502605872095, 1759352087835234399
0.1916831135749817, -0.5996715426445007, 0.4590649335616331, 1759352087865330205
-0.008228302001953125, 0.4177809953689575, 0.5030697288543967, 1759352087895404526
0.07171469926834106, 0.33109110593795776, 0.4843381946869065, 1759352087927194637
-0.0641096830368042, -0.41819775104522705, 0.48203022312389776, 1759352087958877025
0.5859899520874023, 0.27799665927886963, 0.5706326411972588, 1759352087985658809
-0.2501971125602722, 0.5280987024307251, 0.4737569892245581, 1759352088015668839
-0.26435601711273193, 0.03749173879623413, 0.48007992458629956, 1759352088045828715
-0.20285600423812866, -0.4224148392677307, 0.5121851544503996, 1759352088075763903
0.007006227970123291, 0.4967527985572815, 0.5145632526119857, 1759352088105808095
0.057863712310791016, 0.2444794774055481, 0.5024059255634369, 1759352088135888805
0.02418464422225952, -0.1398293375968933, 0.4623675369017614, 1759352088167664467
0.4802665710449219, 0.09541434049606323, 0.49344622022398976, 1759352088198843402
0.01821058988571167, 0.03613746166229248, 0.5950186170152272, 1759352088226089617
0.09897863864898682, 0.042629122734069824, 0.528303665991889, 1759352088255110483
-0.09278297424316406, 0.1497560739517212, 0.47946122235692173, 1759352088286232393
0.30814820528030396, -0.05997377634048462, 0.5106864319201445, 1759352088315240459
-0.5491088032722473, 0.1851758360862732, 0.4778113985133037, 1759352088346369497
0.3534538745880127, 0.0410151481628418, 0.5402764656822923, 1759352088376375187
-0.4548489451408386, -0.027820289134979248, 0.52849067261431, 1759352088407232364
-0.05102115869522095, -0.07548731565475464, 0.49061654659222287, 1759352088438933128
-0.15763145685195923, 0.08602231740951538, 0.5503340869506735, 1759352088466597251
0.22791898250579834, 0.20748847723007202, 0.49938851671055995, 1759352088496656893
-0.19910651445388794, -0.03478938341140747, 0.5173503232660249, 1759352088526653922
0.24655932188034058, -0.19968003034591675, 0.5102664420350473, 1759352088557422193
0.41655105352401733, 0.39284569025039673, 0.49027401823488737, 1759352088587444951
-0.40252959728240967, -0.14860296249389648, 0.4884439331903926, 1759352088617630115
0.38145560026168823, -0.39363914728164673, 0.5207023193841813, 1759352088647566642
-0.09530377388000488, 0.8612129092216492, 0.5027051377413932, 1759352088679636358
0.019408226013183594, 0.0008165240287780762, 0.5259345736848026, 1759352088709054704
-0.42080485820770264, -0.7615428566932678, 0.5204215473204558, 1759352088737548439
0.7472242116928101, 0.49963122606277466, 0.5017258085157666, 1759352088767584178
-0.3159392476081848, 0.228593647480011, 0.5058334488990062, 1759352088797641698
0.050837814807891846, -0.5278143882751465, 0.5011947456973732, 1759352088827675330
-0.05364334583282471, -0.44645100831985474, 0.492207103053362, 1759352088857811627
0.18849152326583862, 0.5114249587059021, 0.48646290604316383, 1759352088887791657
-0.2823154330253601, 0.1926039457321167, 0.47999518357555826, 1759352088918982710
0.34963423013687134, -0.6517655253410339, 0.49723047423556516, 1759352088950956100
-0.31433945894241333, 0.7845141291618347, 0.6181609193029232, 1759352088977848376
0.5228512287139893, 0.27547353506088257, 0.5081220649602257, 1759352089007809172
-0.2733412981033325, -0.6636570692062378, 0.48999814260843927, 1759352089037862480
0.15729331970214844, 0.30407845973968506, 0.5152811454917918, 1759352089067832299
-0.13438552618026733, 0.4871821999549866, 0.5026495560610065, 1759352089097895346
-0.1892290711402893, -0.43347835540771484, 0.49644767076641183, 1759352089127962418
0.13393086194992065, 0.10044759511947632, 0.46595997876103534, 1759352089159204866
-0.5441309809684753, -0.16868501901626587, 0.4522535978354251, 1759352089191480407
0.10427886247634888, 0.02808976173400879, 0.5913512103326272, 1759352089218156691
0.046227097511291504, 0.30817437171936035, 0.5599896596682283, 1759352089247136572
-0.02117246389389038, -0.16348999738693237, 0.5148983559937661, 1759352089277212970
0.07163512706756592, 0.04052150249481201, 0.46510057872751137, 1759352089308274021
0.3403216600418091, 0.11806237697601318, 0.5019043984136303, 1759352089338375424
-0.05205410718917847, 0.04663646221160889, 0.5253367788269581, 1759352089368525634
0.021940112113952637, -0.08942914009094238, 0.5062552760663299, 1759352089398947730
0.21187865734100342, 0.12884169816970825, 0.4397706256786207, 1759352089430966638
-0.5664284825325012, 0.18971103429794312, 0.5170079492283133, 1759352089458657030
0.21491974592208862, -0.22564011812210083, 0.5074694780253236, 1759352089488796131
-0.30652087926864624, -0.234838604927063, 0.5222724518884588, 1759352089518708557
0.6445592045783997, 0.537109911441803, 0.5033307970412155, 1759352089548763410
-0.5461628437042236, -0.17696446180343628, 0.4991928275046087, 1759352089578878660
-0.23009097576141357, -0.6099572777748108, 0.4824682971795181, 1759352089608146315
-0.25711750984191895, -0.43127304315567017, 0.48595099589425805, 1759352089639420590
0.4701716899871826, 0.7117688655853271, 0.4984247264410995, 1759352089670981550
-0.44915956258773804, -0.2736054062843323, 0.512891475871325, 1759352089700105969
-0.14392858743667603, -0.6695215106010437, 0.5283154646830491, 1759352089729159319
-0.2554274797439575, 0.7803502678871155, 0.5029212037516386, 1759352089759217835
0.3058777451515198, 0.1588563323020935, 0.5213629828064338, 1759352089788268179
-0.1928057074546814, -0.7411269545555115, 0.5050151492295089, 1759352089819367301
-0.3193294405937195, 0.7444635033607483, 0.5083637816221491, 1759352089849420470
0.07074242830276489, 0.30232590436935425, 0.47942506669559515, 1759352089879553880
